"participant_number","trial_number","block_name","trial_type","RT","ACC"
1,1,"A","congruent",808.331949247432,1
1,2,"A","congruent",85.7644997498287,1
1,3,"A","incongruent",492.199676441997,1
1,4,"A","incongruent",494.86231154656,1
1,5,"A","congruent",159.269161763091,1
1,6,"A","congruent",591.040303400786,1
1,7,"A","incongruent",615.148978830991,1
1,8,"A","incongruent",564.050808287943,1
1,9,"A","congruent",439.01548752103,1
1,10,"A","congruent",749.693985154019,1
1,11,"A","incongruent",612.001522184996,1
1,12,"A","incongruent",328.31050812951,1
1,13,"A","congruent",368.743629493591,1
1,14,"A","congruent",594.261799642328,1
1,15,"A","incongruent",413.731906607998,1
1,16,"A","incongruent",589.303086996815,1
1,17,"A","congruent",564.63033088727,1
1,18,"A","congruent",739.522834934288,1
1,19,"A","incongruent",512.518495991431,1
1,20,"A","incongruent",258.756541191555,1
1,21,"A","congruent",517.610570894538,1
1,22,"A","congruent",718.31687942275,1
1,23,"A","incongruent",369.439650438762,1
1,24,"A","incongruent",446.520469365579,1
1,25,"A","congruent",480.050766776106,1
1,26,"A","congruent",535.638956502305,1
1,27,"A","incongruent",454.444482646774,1
1,28,"A","incongruent",464.488326488034,1
1,29,"A","congruent",549.953316639532,1
1,30,"A","congruent",147.893710926472,1
1,31,"A","incongruent",217.276727388966,1
1,32,"A","incongruent",319.592254555727,1
1,33,"A","congruent",177.141312369072,1
1,34,"A","congruent",466.870815414242,1
1,35,"A","incongruent",444.837952678197,1
1,36,"A","incongruent",272.623342760425,1
1,37,"A","congruent",501.945786130965,1
1,38,"A","congruent",64.6108216447558,1
1,39,"A","incongruent",242.227836858263,1
1,40,"A","incongruent",215.181993972946,1
1,41,"A","congruent",716.019683733009,1
1,42,"A","congruent",416.743245008921,1
1,43,"A","incongruent",294.651251782956,1
1,44,"A","incongruent",123.547961312065,1
1,45,"A","congruent",648.735168695492,1
1,46,"A","congruent",730.157083278492,1
1,47,"A","incongruent",181.07292684123,1
1,48,"A","incongruent",522.536940917078,1
1,49,"A","congruent",608.715843818843,1
1,50,"A","congruent",330.896022875017,1
1,51,"A","incongruent",382.593077694889,1
1,52,"A","incongruent",646.309981550557,1
1,53,"A","congruent",633.634359661682,1
1,54,"A","congruent",318.412518787783,1
1,55,"A","incongruent",703.006551940102,1
1,56,"A","incongruent",843.532976651491,1
1,57,"A","congruent",608.064662199228,1
1,58,"A","congruent",759.289116965823,1
1,59,"A","incongruent",586.076529525433,1
1,60,"A","incongruent",197.621398765084,1
1,61,"A","congruent",584.776252588813,1
1,62,"A","congruent",441.277246649437,1
1,63,"A","incongruent",351.024114163402,1
1,64,"A","incongruent",793.489387919512,1
1,65,"A","congruent",591.209233995328,1
1,66,"A","congruent",632.979655274666,1
1,67,"A","incongruent",426.92048136653,1
1,68,"A","incongruent",487.797164277438,1
1,69,"A","congruent",418.57418708474,1
1,70,"A","congruent",419.775290839218,1
1,71,"A","incongruent",904.781228480374,1
1,72,"A","incongruent",420.561473096739,1
1,73,"A","congruent",288.316011013051,1
1,74,"A","congruent",418.812323050545,1
1,75,"A","incongruent",270.005865874666,1
1,76,"A","incongruent",1150.33444451045,1
1,77,"A","congruent",665.014242210936,1
1,78,"A","congruent",499.487303573277,1
1,79,"A","incongruent",452.752271081137,1
1,80,"A","incongruent",143.895115920845,1
1,1,"B","congruent",787.844078593359,1
1,2,"B","congruent",454.31600018328,1
1,3,"B","incongruent",430.733991272801,1
1,4,"B","incongruent",572.025089766644,1
1,5,"B","congruent",347.643894593294,1
1,6,"B","congruent",317.879807376242,1
1,7,"B","incongruent",713.078494386424,1
1,8,"B","incongruent",581.381548135105,1
1,9,"B","congruent",659.771350340639,1
1,10,"B","congruent",375.900025112783,1
1,11,"B","incongruent",488.870117079979,1
1,12,"B","incongruent",442.793163991648,1
1,13,"B","congruent",543.749567729257,1
1,14,"B","congruent",285.002829160381,1
1,15,"B","incongruent",846.52890666055,1
1,16,"B","incongruent",235.399333683096,1
1,17,"B","congruent",741.451029484398,1
1,18,"B","congruent",563.276354314037,1
1,19,"B","incongruent",922.087509192905,1
1,20,"B","incongruent",358.184023025461,1
1,21,"B","congruent",644.533847950117,1
1,22,"B","congruent",92.780375698665,1
1,23,"B","incongruent",604.251778974434,1
1,24,"B","incongruent",650.710562467015,1
1,25,"B","congruent",365.062282976266,1
1,26,"B","congruent",339.727139168819,1
1,27,"B","incongruent",614.279048175614,1
1,28,"B","incongruent",148.023758137237,1
1,29,"B","congruent",584.717486991221,1
1,30,"B","congruent",319.884314000586,1
1,31,"B","incongruent",260.581922007233,1
1,32,"B","incongruent",238.256986764544,1
1,33,"B","congruent",365.600492071635,1
1,34,"B","congruent",622.818909049883,1
1,35,"B","incongruent",506.794228710461,1
1,36,"B","incongruent",731.309330112918,1
1,37,"B","congruent",448.096339380815,1
1,38,"B","congruent",783.96475507888,1
1,39,"B","incongruent",511.577269987022,1
1,40,"B","incongruent",753.546533171607,1
1,41,"B","congruent",-34.7219564366,1
1,42,"B","congruent",276.981678075362,1
1,43,"B","incongruent",551.408166463583,1
1,44,"B","incongruent",495.910183717491,1
1,45,"B","congruent",267.610163909786,1
1,46,"B","congruent",923.946651310176,1
1,47,"B","incongruent",670.603858954449,1
1,48,"B","incongruent",600.102382484134,1
1,49,"B","congruent",430.123733963724,1
1,50,"B","congruent",685.065104176312,1
1,51,"B","incongruent",602.718057498199,1
1,52,"B","incongruent",356.378230086745,1
1,53,"B","congruent",626.223523416926,1
1,54,"B","congruent",732.622502178685,1
1,55,"B","incongruent",378.372740807433,1
1,56,"B","incongruent",463.936140090704,1
1,57,"B","congruent",99.2274500352167,1
1,58,"B","congruent",509.212436690652,1
1,59,"B","incongruent",754.992535674634,1
1,60,"B","incongruent",150.529269247604,1
1,61,"B","congruent",716.000201327423,1
1,62,"B","congruent",503.058538520093,1
1,63,"B","incongruent",438.610691262897,1
1,64,"B","incongruent",525.51384123711,1
1,65,"B","congruent",417.222937229166,1
1,66,"B","congruent",637.579958223964,1
1,67,"B","incongruent",19.2131531090412,1
1,68,"B","incongruent",449.718961349708,1
1,69,"B","congruent",211.052802825802,1
1,70,"B","congruent",519.320928305312,1
1,71,"B","incongruent",614.006916661437,1
1,72,"B","incongruent",577.775063521936,1
1,73,"B","congruent",673.007746497602,1
1,74,"B","congruent",356.133336352502,1
1,75,"B","incongruent",683.672614246696,1
1,76,"B","incongruent",593.895645004495,1
1,77,"B","congruent",662.346789265309,1
1,78,"B","congruent",643.956018980331,1
1,79,"B","incongruent",724.291894987525,1
1,80,"B","incongruent",107.752359010556,1
2,1,"A","congruent",226.326408444843,1
2,2,"A","congruent",621.842757940969,1
2,3,"A","incongruent",315.473023998449,1
2,4,"A","incongruent",495.096515159298,1
2,5,"A","congruent",664.243099788488,1
2,6,"A","congruent",317.454837989511,1
2,7,"A","incongruent",-51.0581143011648,1
2,8,"A","incongruent",228.415316855463,1
2,9,"A","congruent",284.504229180396,1
2,10,"A","congruent",392.914971274728,1
2,11,"A","incongruent",321.519792090987,1
2,12,"A","incongruent",462.126578140491,1
2,13,"A","congruent",428.726956898273,1
2,14,"A","congruent",712.971853982244,1
2,15,"A","incongruent",308.569107268184,1
2,16,"A","incongruent",754.209585326074,1
2,17,"A","congruent",896.04808575883,1
2,18,"A","congruent",474.874399229745,1
2,19,"A","incongruent",667.637941114475,1
2,20,"A","incongruent",633.440645572164,1
2,21,"A","congruent",443.37745304467,1
2,22,"A","congruent",647.255382600722,1
2,23,"A","incongruent",812.641074727234,1
2,24,"A","incongruent",536.96360677624,1
2,25,"A","congruent",383.357643256424,1
2,26,"A","congruent",721.423725815684,1
2,27,"A","incongruent",803.954600997078,1
2,28,"A","incongruent",354.678855461817,1
2,29,"A","congruent",803.689765970908,1
2,30,"A","congruent",502.669582729801,1
2,31,"A","incongruent",195.476504023274,1
2,32,"A","incongruent",727.499437514322,1
2,33,"A","congruent",168.918000517884,1
2,34,"A","congruent",675.0844909396,1
2,35,"A","incongruent",285.714817640144,1
2,36,"A","incongruent",491.386815165055,1
2,37,"A","congruent",252.814605502148,1
2,38,"A","congruent",762.546197601434,1
2,39,"A","incongruent",292.152151359117,1
2,40,"A","incongruent",708.427959294339,1
2,41,"A","congruent",626.134867460462,1
2,42,"A","congruent",453.129136006368,1
2,43,"A","incongruent",510.566609738328,1
2,44,"A","incongruent",414.723160837333,1
2,45,"A","congruent",671.517514567146,1
2,46,"A","congruent",405.942997710431,1
2,47,"A","incongruent",741.193442685056,1
2,48,"A","incongruent",442.930863974453,1
2,49,"A","congruent",470.099072746224,1
2,50,"A","congruent",201.138701567198,1
2,51,"A","incongruent",314.462989633714,1
2,52,"A","incongruent",11.3987924821937,1
2,53,"A","congruent",427.113006965672,1
2,54,"A","congruent",445.878304187372,1
2,55,"A","incongruent",396.777356948584,1
2,56,"A","incongruent",439.422288558529,1
2,57,"A","congruent",451.670315768021,1
2,58,"A","congruent",854.112189232375,1
2,59,"A","incongruent",649.001992121677,1
2,60,"A","incongruent",629.691699386678,1
2,61,"A","congruent",594.503599673347,1
2,62,"A","congruent",532.482610853683,1
2,63,"A","incongruent",302.693696152535,1
2,64,"A","incongruent",667.108034983697,1
2,65,"A","congruent",448.639453524181,1
2,66,"A","congruent",487.200683226239,1
2,67,"A","incongruent",562.34163845772,1
2,68,"A","incongruent",479.802000428021,1
2,69,"A","congruent",573.612845648918,1
2,70,"A","congruent",241.768490217991,1
2,71,"A","incongruent",580.128700333976,1
2,72,"A","incongruent",560.306489472402,1
2,73,"A","congruent",430.036615689245,1
2,74,"A","congruent",788.127749975482,1
2,75,"A","incongruent",600.690622116347,1
2,76,"A","incongruent",211.239492219046,1
2,77,"A","congruent",520.325189052724,1
2,78,"A","congruent",307.736636709762,1
2,79,"A","incongruent",570.027038097002,1
2,80,"A","incongruent",714.67912514052,1
2,1,"B","congruent",406.056669116965,1
2,2,"B","congruent",278.343392846861,1
2,3,"B","incongruent",287.524611308625,1
2,4,"B","incongruent",222.371300047178,1
2,5,"B","congruent",426.593889785279,1
2,6,"B","congruent",724.639810709143,1
2,7,"B","incongruent",358.299515612124,1
2,8,"B","incongruent",715.558348040665,1
2,9,"B","congruent",480.462728627588,1
2,10,"B","congruent",309.277431965789,1
2,11,"B","incongruent",675.287716774477,1
2,12,"B","incongruent",494.981468196278,1
2,13,"B","congruent",718.403857687224,1
2,14,"B","congruent",683.728966101384,1
2,15,"B","incongruent",257.532472743561,1
2,16,"B","incongruent",333.585371721705,1
2,17,"B","congruent",674.092973122682,1
2,18,"B","congruent",564.066446546723,1
2,19,"B","incongruent",-108.283475761207,1
2,20,"B","incongruent",314.882150765031,1
2,21,"B","congruent",473.807754190721,1
2,22,"B","congruent",415.185003593796,1
2,23,"B","incongruent",449.096080767806,1
2,24,"B","incongruent",604.687008924773,1
2,25,"B","congruent",535.499593035556,1
2,26,"B","congruent",654.764002550526,1
2,27,"B","incongruent",540.583054537149,1
2,28,"B","incongruent",459.556220191298,1
2,29,"B","congruent",-3.73661685010518,1
2,30,"B","congruent",597.602307339304,1
2,31,"B","incongruent",680.984347227171,1
2,32,"B","incongruent",707.789001600979,1
2,33,"B","congruent",371.636594186809,1
2,34,"B","congruent",647.440228100563,1
2,35,"B","incongruent",497.001604380917,1
2,36,"B","incongruent",186.855502748241,1
2,37,"B","congruent",870.725142308267,1
2,38,"B","congruent",619.969863730261,1
2,39,"B","incongruent",538.024443223765,1
2,40,"B","incongruent",612.573144930405,1
2,41,"B","congruent",432.928940093814,1
2,42,"B","congruent",389.904933341002,1
2,43,"B","incongruent",310.375509589118,1
2,44,"B","incongruent",133.202516786727,1
2,45,"B","congruent",600.228150154097,1
2,46,"B","congruent",742.128157403155,1
2,47,"B","incongruent",317.106080693433,1
2,48,"B","incongruent",231.176533294649,1
2,49,"B","congruent",1020.59750832417,1
2,50,"B","congruent",610.163349936381,1
2,51,"B","incongruent",763.682585452632,1
2,52,"B","incongruent",517.969731727841,1
2,53,"B","congruent",187.820277678813,1
2,54,"B","congruent",543.204227013014,1
2,55,"B","incongruent",594.034262138858,1
2,56,"B","incongruent",841.377085197364,1
2,57,"B","congruent",664.12489753874,1
2,58,"B","congruent",363.276046607029,1
2,59,"B","incongruent",461.367916391605,1
2,60,"B","incongruent",713.546967463832,1
2,61,"B","congruent",388.737148080845,1
2,62,"B","congruent",550.681577908122,1
2,63,"B","incongruent",165.389139644111,1
2,64,"B","incongruent",788.029603504295,1
2,65,"B","congruent",463.302682008953,1
2,66,"B","congruent",133.256145428102,1
2,67,"B","incongruent",427.032919614088,1
2,68,"B","incongruent",717.000302589937,1
2,69,"B","congruent",221.387285696637,1
2,70,"B","congruent",178.6188028571,1
2,71,"B","incongruent",327.433523092792,1
2,72,"B","incongruent",299.205038802202,1
2,73,"B","congruent",319.841052827085,1
2,74,"B","congruent",561.943706009395,1
2,75,"B","incongruent",299.361658873631,1
2,76,"B","incongruent",606.071408366251,1
2,77,"B","congruent",449.832198927163,1
2,78,"B","congruent",277.25340641643,1
2,79,"B","incongruent",242.169289397704,1
2,80,"B","incongruent",315.927337622096,1
3,1,"A","congruent",348.025045686047,1
3,2,"A","congruent",496.443224328858,1
3,3,"A","incongruent",773.980396765548,1
3,4,"A","incongruent",669.83129250973,1
3,5,"A","congruent",545.371016021663,1
3,6,"A","congruent",614.573120871343,1
3,7,"A","incongruent",405.75303263914,1
3,8,"A","incongruent",485.483262951259,1
3,9,"A","congruent",531.598530821542,1
3,10,"A","congruent",748.606424099391,1
3,11,"A","incongruent",551.118635641974,1
3,12,"A","incongruent",577.759983460205,1
3,13,"A","congruent",301.389177048533,1
3,14,"A","congruent",461.843862387,1
3,15,"A","incongruent",463.06547690637,1
3,16,"A","incongruent",451.291854731259,1
3,17,"A","congruent",180.626011497744,1
3,18,"A","congruent",567.403722002185,1
3,19,"A","incongruent",495.18091059873,1
3,20,"A","incongruent",739.920257423119,1
3,21,"A","congruent",513.720304941921,1
3,22,"A","congruent",217.297541858339,1
3,23,"A","incongruent",568.518146458486,1
3,24,"A","incongruent",660.551519346855,1
3,25,"A","congruent",554.901131658322,1
3,26,"A","congruent",629.157926644953,1
3,27,"A","incongruent",208.409443732225,1
3,28,"A","incongruent",420.395950047919,1
3,29,"A","congruent",425.673847382335,1
3,30,"A","congruent",475.702583468048,1
3,31,"A","incongruent",278.589128493413,1
3,32,"A","incongruent",949.838983676267,1
3,33,"A","congruent",427.180607780857,1
3,34,"A","congruent",280.140268346472,1
3,35,"A","incongruent",416.535939365747,1
3,36,"A","incongruent",380.415984436198,1
3,37,"A","congruent",555.837965615392,1
3,38,"A","congruent",171.832566885203,1
3,39,"A","incongruent",593.767182726491,1
3,40,"A","incongruent",415.748370701207,1
3,41,"A","congruent",673.637502840152,1
3,42,"A","congruent",856.870223246434,1
3,43,"A","incongruent",719.956890365267,1
3,44,"A","incongruent",771.496870476886,1
3,45,"A","congruent",598.148635058844,1
3,46,"A","congruent",602.319979865408,1
3,47,"A","incongruent",488.340591050872,1
3,48,"A","incongruent",893.510372681707,1
3,49,"A","congruent",492.978703418655,1
3,50,"A","congruent",54.8414349222654,1
3,51,"A","incongruent",219.648175179374,1
3,52,"A","incongruent",941.600769451986,1
3,53,"A","congruent",676.698237620594,1
3,54,"A","congruent",298.465559947787,1
3,55,"A","incongruent",373.668808840095,1
3,56,"A","incongruent",600.13408141215,1
3,57,"A","congruent",264.472512411918,1
3,58,"A","congruent",365.684366440741,1
3,59,"A","incongruent",964.880995272266,1
3,60,"A","incongruent",519.372632842382,1
3,61,"A","congruent",604.618383080117,1
3,62,"A","congruent",461.588128507078,1
3,63,"A","incongruent",291.925662619796,1
3,64,"A","incongruent",632.174016753997,1
3,65,"A","congruent",708.851607062532,1
3,66,"A","congruent",690.12190937698,1
3,67,"A","incongruent",568.353973917111,1
3,68,"A","incongruent",451.119851490305,1
3,69,"A","congruent",456.350496281044,1
3,70,"A","congruent",650.097871800691,1
3,71,"A","incongruent",-2.17875277832889,1
3,72,"A","incongruent",470.358521138438,1
3,73,"A","congruent",508.176873970685,1
3,74,"A","congruent",459.227280621533,1
3,75,"A","incongruent",606.122359817768,1
3,76,"A","incongruent",643.459427405154,1
3,77,"A","congruent",437.214692357609,1
3,78,"A","congruent",459.20005365999,1
3,79,"A","incongruent",637.272492255305,1
3,80,"A","incongruent",516.155608715551,1
3,1,"B","congruent",854.042178000359,1
3,2,"B","congruent",1031.78129821751,1
3,3,"B","incongruent",616.117375124295,1
3,4,"B","incongruent",267.48645308456,1
3,5,"B","congruent",449.960138948302,1
3,6,"B","congruent",405.650458109291,1
3,7,"B","incongruent",601.033546412879,1
3,8,"B","incongruent",436.896130232902,1
3,9,"B","congruent",449.190485581449,1
3,10,"B","congruent",482.552675229618,1
3,11,"B","incongruent",488.138954692689,1
3,12,"B","incongruent",333.99624301205,1
3,13,"B","congruent",807.825382796014,1
3,14,"B","congruent",577.823754864673,1
3,15,"B","incongruent",595.134436911088,1
3,16,"B","incongruent",586.1056031698,1
3,17,"B","congruent",719.498511671311,1
3,18,"B","congruent",478.858793774727,1
3,19,"B","incongruent",612.046600064733,1
3,20,"B","incongruent",401.086892791157,1
3,21,"B","congruent",498.135550165373,1
3,22,"B","congruent",496.892271272666,1
3,23,"B","incongruent",-21.996667648575,1
3,24,"B","incongruent",110.285530847057,1
3,25,"B","congruent",225.588991402664,1
3,26,"B","congruent",375.173990287886,1
3,27,"B","incongruent",700.812101924189,1
3,28,"B","incongruent",703.965186670478,1
3,29,"B","congruent",503.763086627126,1
3,30,"B","congruent",475.206289534246,1
3,31,"B","incongruent",330.301267081666,1
3,32,"B","incongruent",721.811451831819,1
3,33,"B","congruent",715.092751235698,1
3,34,"B","congruent",618.986950718936,1
3,35,"B","incongruent",610.173469094736,1
3,36,"B","incongruent",623.144816268121,1
3,37,"B","congruent",610.954110949419,1
3,38,"B","congruent",615.234563763304,1
3,39,"B","incongruent",519.932579995823,1
3,40,"B","incongruent",486.615932206997,1
3,41,"B","congruent",567.470643452091,1
3,42,"B","congruent",258.362250050367,1
3,43,"B","incongruent",392.553727138899,1
3,44,"B","incongruent",635.161985776572,1
3,45,"B","congruent",999.812317615878,1
3,46,"B","congruent",539.887496209562,1
3,47,"B","incongruent",760.957679800657,1
3,48,"B","incongruent",1001.89926668658,1
3,49,"B","congruent",471.378061045493,1
3,50,"B","congruent",629.114878817388,1
3,51,"B","incongruent",704.339366120158,1
3,52,"B","incongruent",626.995677203311,1
3,53,"B","congruent",413.633199411449,1
3,54,"B","congruent",443.65916594724,1
3,55,"B","incongruent",636.160671689496,1
3,56,"B","incongruent",544.105431699741,1
3,57,"B","congruent",563.196047568716,1
3,58,"B","congruent",584.167284229305,1
3,59,"B","incongruent",617.200373607234,1
3,60,"B","incongruent",396.483562372406,1
3,61,"B","congruent",295.69013084625,1
3,62,"B","congruent",646.453884880734,1
3,63,"B","incongruent",786.803691395567,1
3,64,"B","incongruent",513.812161467769,1
3,65,"B","congruent",442.847444012142,1
3,66,"B","congruent",57.8764760250007,1
3,67,"B","incongruent",563.349897298493,1
3,68,"B","incongruent",656.437407624403,1
3,69,"B","congruent",636.019611766763,1
3,70,"B","congruent",852.727913973689,1
3,71,"B","incongruent",323.620692153946,1
3,72,"B","incongruent",501.97861739495,1
3,73,"B","congruent",121.719217539843,1
3,74,"B","congruent",349.251653913237,1
3,75,"B","incongruent",737.430188382207,1
3,76,"B","incongruent",550.749043107903,1
3,77,"B","congruent",317.884702495641,1
3,78,"B","congruent",443.921136852827,1
3,79,"B","incongruent",394.306570414309,1
3,80,"B","incongruent",-57.0653346492855,1
4,1,"A","congruent",327.94218906347,1
4,2,"A","congruent",23.7468682225833,1
4,3,"A","incongruent",295.623195301112,1
4,4,"A","incongruent",520.491786308785,1
4,5,"A","congruent",628.053066673394,1
4,6,"A","congruent",827.306832501577,1
4,7,"A","incongruent",60.5390555946542,1
4,8,"A","incongruent",596.483555944778,1
4,9,"A","congruent",498.557650912831,1
4,10,"A","congruent",579.881577545551,1
4,11,"A","incongruent",364.786795644162,1
4,12,"A","incongruent",691.228049754506,1
4,13,"A","congruent",826.702660987181,1
4,14,"A","congruent",625.705743079532,1
4,15,"A","incongruent",708.890522257032,1
4,16,"A","incongruent",881.376982548074,1
4,17,"A","congruent",453.861976383862,1
4,18,"A","congruent",601.084904720473,1
4,19,"A","incongruent",536.258630978446,1
4,20,"A","incongruent",673.626954437183,1
4,21,"A","congruent",613.529952186877,1
4,22,"A","congruent",668.831593911696,1
4,23,"A","incongruent",290.368189047803,1
4,24,"A","incongruent",485.036170976513,1
4,25,"A","congruent",623.29290220094,1
4,26,"A","congruent",342.325146056199,1
4,27,"A","incongruent",331.170000585269,1
4,28,"A","incongruent",-58.0977567166219,1
4,29,"A","congruent",548.821851364991,1
4,30,"A","congruent",630.490292398862,1
4,31,"A","incongruent",511.373576054248,1
4,32,"A","incongruent",333.205456070808,1
4,33,"A","congruent",697.380678215214,1
4,34,"A","congruent",534.640400692388,1
4,35,"A","incongruent",613.184777268162,1
4,36,"A","incongruent",342.4908096033,1
4,37,"A","congruent",648.570889834521,1
4,38,"A","congruent",631.175502256564,1
4,39,"A","incongruent",705.485794552209,1
4,40,"A","incongruent",900.299125155767,1
4,41,"A","congruent",620.896834926661,1
4,42,"A","congruent",624.885963162149,1
4,43,"A","incongruent",268.505748110647,1
4,44,"A","incongruent",469.793730675408,1
4,45,"A","congruent",358.676424285503,1
4,46,"A","congruent",867.341801419365,1
4,47,"A","incongruent",415.204958523839,1
4,48,"A","incongruent",746.02055046467,1
4,49,"A","congruent",363.372966834718,1
4,50,"A","congruent",485.722583981716,1
4,51,"A","incongruent",430.415269133207,1
4,52,"A","incongruent",627.79353302724,1
4,53,"A","congruent",740.996149693587,1
4,54,"A","congruent",826.667807774404,1
4,55,"A","incongruent",348.888486765108,1
4,56,"A","incongruent",591.182990770343,1
4,57,"A","congruent",630.781453914358,1
4,58,"A","congruent",558.179172647851,1
4,59,"A","incongruent",431.102298080835,1
4,60,"A","incongruent",413.53499061935,1
4,61,"A","congruent",64.2663912593529,1
4,62,"A","congruent",287.336641974064,1
4,63,"A","incongruent",531.322682393764,1
4,64,"A","incongruent",391.431873233601,1
4,65,"A","congruent",489.237295885096,1
4,66,"A","congruent",422.751318435976,1
4,67,"A","incongruent",205.907497715084,1
4,68,"A","incongruent",684.900462173349,1
4,69,"A","congruent",169.483327601832,1
4,70,"A","congruent",331.435691737088,1
4,71,"A","incongruent",454.575409283,1
4,72,"A","incongruent",629.744971602331,1
4,73,"A","congruent",542.469288643296,1
4,74,"A","congruent",543.008374490255,1
4,75,"A","incongruent",542.875165031663,1
4,76,"A","incongruent",529.114165041469,1
4,77,"A","congruent",1006.54383910953,1
4,78,"A","congruent",199.335443792487,1
4,79,"A","incongruent",669.565319176075,1
4,80,"A","incongruent",211.189643162137,1
4,1,"B","congruent",292.00806715559,1
4,2,"B","congruent",466.282212143021,1
4,3,"B","incongruent",651.096550767329,1
4,4,"B","incongruent",461.364534569726,1
4,5,"B","congruent",614.206045985879,1
4,6,"B","congruent",337.783001550691,1
4,7,"B","incongruent",497.135281845551,1
4,8,"B","incongruent",312.135934138563,1
4,9,"B","congruent",772.669902858101,1
4,10,"B","congruent",133.383065705935,1
4,11,"B","incongruent",455.137121542431,1
4,12,"B","incongruent",471.957071380934,1
4,13,"B","congruent",710.741682334914,1
4,14,"B","congruent",776.349412229421,1
4,15,"B","incongruent",655.163097712319,1
4,16,"B","incongruent",370.771030556964,1
4,17,"B","congruent",530.15700711615,1
4,18,"B","congruent",637.804638617224,1
4,19,"B","incongruent",332.172410818958,1
4,20,"B","incongruent",435.037337138754,1
4,21,"B","congruent",570.65224112596,1
4,22,"B","congruent",264.772162090888,1
4,23,"B","incongruent",532.191798934494,1
4,24,"B","incongruent",341.916220544316,1
4,25,"B","congruent",564.373467881027,1
4,26,"B","congruent",235.503774909549,1
4,27,"B","incongruent",638.181848587913,1
4,28,"B","incongruent",535.715999535554,1
4,29,"B","congruent",123.790965670848,1
4,30,"B","congruent",596.321297565096,1
4,31,"B","incongruent",583.889153328726,1
4,32,"B","incongruent",450.554731698107,1
4,33,"B","congruent",570.076053000353,1
4,34,"B","congruent",796.700317871566,1
4,35,"B","incongruent",465.305912876894,1
4,36,"B","incongruent",312.082072823776,1
4,37,"B","congruent",481.102063396772,1
4,38,"B","congruent",694.322304374139,1
4,39,"B","incongruent",317.395128629012,1
4,40,"B","incongruent",739.127358013281,1
4,41,"B","congruent",201.353410832008,1
4,42,"B","congruent",592.115421344056,1
4,43,"B","incongruent",847.595350614543,1
4,44,"B","incongruent",600.267461595034,1
4,45,"B","congruent",159.597208984043,1
4,46,"B","congruent",584.511220387505,1
4,47,"B","incongruent",413.726989768403,1
4,48,"B","incongruent",592.940781346827,1
4,49,"B","congruent",589.094176504948,1
4,50,"B","congruent",484.645132499715,1
4,51,"B","incongruent",351.96685328196,1
4,52,"B","incongruent",457.437577240211,1
4,53,"B","congruent",356.607626923908,1
4,54,"B","congruent",252.209206511771,1
4,55,"B","incongruent",736.137953805954,1
4,56,"B","incongruent",820.332686451073,1
4,57,"B","congruent",369.290188614953,1
4,58,"B","congruent",324.263767010174,1
4,59,"B","incongruent",566.219552849368,1
4,60,"B","incongruent",671.235700035325,1
4,61,"B","congruent",337.65021147892,1
4,62,"B","congruent",401.2894785688,1
4,63,"B","incongruent",545.464810437085,1
4,64,"B","incongruent",734.090203861367,1
4,65,"B","congruent",379.463440930138,1
4,66,"B","congruent",865.830475844975,1
4,67,"B","incongruent",652.319923069756,1
4,68,"B","incongruent",462.789521837418,1
4,69,"B","congruent",295.090078709841,1
4,70,"B","congruent",253.95267169615,1
4,71,"B","incongruent",184.386967524016,1
4,72,"B","incongruent",426.290102876103,1
4,73,"B","congruent",868.30397583008,1
4,74,"B","congruent",426.340186457437,1
4,75,"B","incongruent",576.137051135445,1
4,76,"B","incongruent",252.062864008274,1
4,77,"B","congruent",923.582926467587,1
4,78,"B","congruent",599.419102116034,1
4,79,"B","incongruent",868.264690834224,1
4,80,"B","incongruent",471.402888089641,1
5,1,"A","congruent",476.854196006015,1
5,2,"A","congruent",341.916918107819,1
5,3,"A","incongruent",609.15250550858,1
5,4,"A","incongruent",392.010829631688,1
5,5,"A","congruent",336.520453218631,1
5,6,"A","congruent",777.325391399296,1
5,7,"A","incongruent",833.83550441684,1
5,8,"A","incongruent",473.835140932422,1
5,9,"A","congruent",571.436130932708,1
5,10,"A","congruent",278.050375359007,1
5,11,"A","incongruent",561.848300971488,1
5,12,"A","incongruent",594.133570985589,1
5,13,"A","congruent",359.999644101077,1
5,14,"A","congruent",294.480767269386,1
5,15,"A","incongruent",592.348808859949,1
5,16,"A","incongruent",935.019909094028,1
5,17,"A","congruent",654.073220362084,1
5,18,"A","congruent",278.006055303945,1
5,19,"A","incongruent",253.797860742774,1
5,20,"A","incongruent",488.571328362837,1
5,21,"A","congruent",561.062207729086,1
5,22,"A","congruent",633.627477070416,1
5,23,"A","incongruent",459.171200399103,1
5,24,"A","incongruent",335.382788735931,1
5,25,"A","congruent",599.086646724766,1
5,26,"A","congruent",575.483286969306,1
5,27,"A","incongruent",395.659136099104,1
5,28,"A","incongruent",541.172392974785,1
5,29,"A","congruent",231.677690686,1
5,30,"A","congruent",525.040236943818,1
5,31,"A","incongruent",748.51352716279,1
5,32,"A","incongruent",647.546191150525,1
5,33,"A","congruent",826.00678077804,1
5,34,"A","congruent",326.309253820826,1
5,35,"A","incongruent",756.932508710284,1
5,36,"A","incongruent",554.82222474041,1
5,37,"A","congruent",568.294124884152,1
5,38,"A","congruent",728.528973131885,1
5,39,"A","incongruent",772.004876099203,1
5,40,"A","incongruent",693.783371142843,1
5,41,"A","congruent",729.857167057664,1
5,42,"A","congruent",828.18186146837,1
5,43,"A","incongruent",702.828758965218,1
5,44,"A","incongruent",862.943688518153,1
5,45,"A","congruent",272.674933759951,1
5,46,"A","congruent",512.936137316014,1
5,47,"A","incongruent",380.41558040959,1
5,48,"A","incongruent",282.641976340782,1
5,49,"A","congruent",613.631978562807,1
5,50,"A","congruent",501.23134138129,1
5,51,"A","incongruent",960.521383279384,1
5,52,"A","incongruent",628.536419338102,1
5,53,"A","congruent",533.401664383269,1
5,54,"A","congruent",568.879824711206,1
5,55,"A","incongruent",-10.3538264124028,1
5,56,"A","incongruent",628.983797753421,1
5,57,"A","congruent",447.065947840996,1
5,58,"A","congruent",422.972907011675,1
5,59,"A","incongruent",276.407723739764,1
5,60,"A","incongruent",753.354041062884,1
5,61,"A","congruent",644.252949288703,1
5,62,"A","congruent",258.270741534216,1
5,63,"A","incongruent",555.619546870685,1
5,64,"A","incongruent",148.293759205145,1
5,65,"A","congruent",360.000248873261,1
5,66,"A","congruent",313.197190541581,1
5,67,"A","incongruent",467.383952213482,1
5,68,"A","incongruent",440.471748328495,1
5,69,"A","congruent",522.002852606429,1
5,70,"A","congruent",583.013832126789,1
5,71,"A","incongruent",112.118222864887,1
5,72,"A","incongruent",812.181597079798,1
5,73,"A","congruent",281.781705671771,1
5,74,"A","congruent",513.745586677125,1
5,75,"A","incongruent",392.44696273189,1
5,76,"A","incongruent",511.754261979913,1
5,77,"A","congruent",574.455389208674,1
5,78,"A","congruent",692.440071966541,1
5,79,"A","incongruent",419.851620365558,1
5,80,"A","incongruent",574.858871798864,1
5,1,"B","congruent",817.027885009919,1
5,2,"B","congruent",509.96672475596,1
5,3,"B","incongruent",453.493930259295,1
5,4,"B","incongruent",581.248427836978,1
5,5,"B","congruent",658.265071324606,1
5,6,"B","congruent",713.774656990427,1
5,7,"B","incongruent",116.580175621245,1
5,8,"B","incongruent",695.18114268809,1
5,9,"B","congruent",304.546475071731,1
5,10,"B","congruent",514.455458705032,1
5,11,"B","incongruent",603.893387235693,1
5,12,"B","incongruent",475.873668450897,1
5,13,"B","congruent",325.120659191596,1
5,14,"B","congruent",868.478366829454,1
5,15,"B","incongruent",441.522423486404,1
5,16,"B","incongruent",635.422285363669,1
5,17,"B","congruent",557.872926804797,1
5,18,"B","congruent",376.302064378015,1
5,19,"B","incongruent",397.523235089786,1
5,20,"B","incongruent",734.501241031063,1
5,21,"B","congruent",285.07878253298,1
5,22,"B","congruent",751.073794224153,1
5,23,"B","incongruent",212.938394820481,1
5,24,"B","incongruent",666.290854874972,1
5,25,"B","congruent",725.453601031353,1
5,26,"B","congruent",722.639139647971,1
5,27,"B","incongruent",270.311363588331,1
5,28,"B","incongruent",536.834816634984,1
5,29,"B","congruent",412.782998551152,1
5,30,"B","congruent",438.224159927718,1
5,31,"B","incongruent",625.225521481368,1
5,32,"B","incongruent",763.888192442346,1
5,33,"B","congruent",358.742736785105,1
5,34,"B","congruent",607.384561009538,1
5,35,"B","incongruent",740.679910703638,1
5,36,"B","incongruent",380.150071466221,1
5,37,"B","congruent",566.540292534352,1
5,38,"B","congruent",633.445131630224,1
5,39,"B","incongruent",537.11379180798,1
5,40,"B","incongruent",539.756311554844,1
5,41,"B","congruent",557.010650962845,1
5,42,"B","congruent",637.855973360325,1
5,43,"B","incongruent",285.939993473702,1
5,44,"B","incongruent",458.525741812159,1
5,45,"B","congruent",236.553564532128,1
5,46,"B","congruent",832.489874422622,1
5,47,"B","incongruent",240.792928921222,1
5,48,"B","incongruent",618.667731365865,1
5,49,"B","congruent",457.344240642367,1
5,50,"B","congruent",419.276275579128,1
5,51,"B","incongruent",146.225617575863,1
5,52,"B","incongruent",486.316876501805,1
5,53,"B","congruent",539.552418165196,1
5,54,"B","congruent",264.915506101981,1
5,55,"B","incongruent",564.47885100072,1
5,56,"B","incongruent",390.077472862839,1
5,57,"B","congruent",657.859954847541,1
5,58,"B","congruent",555.557107272808,1
5,59,"B","incongruent",666.440919616713,1
5,60,"B","incongruent",315.173365324301,1
5,61,"B","congruent",837.254253281101,1
5,62,"B","congruent",714.30093479712,1
5,63,"B","incongruent",577.932014505585,1
5,64,"B","incongruent",511.433633008201,1
5,65,"B","congruent",259.621279219011,1
5,66,"B","congruent",563.549909165808,1
5,67,"B","incongruent",189.301056160896,1
5,68,"B","incongruent",455.13125873929,1
5,69,"B","congruent",237.155060784817,1
5,70,"B","congruent",667.737388183877,1
5,71,"B","incongruent",490.723288455405,1
5,72,"B","incongruent",241.144207558651,1
5,73,"B","congruent",526.982403535015,1
5,74,"B","congruent",639.901811471948,1
5,75,"B","incongruent",643.929128054891,1
5,76,"B","incongruent",776.478203715832,1
5,77,"B","congruent",663.815758240311,1
5,78,"B","congruent",800.574267017064,1
5,79,"B","incongruent",510.826068654783,1
5,80,"B","incongruent",332.054495879159,1
6,1,"A","congruent",479.063263514627,1
6,2,"A","congruent",742.732133710781,1
6,3,"A","incongruent",357.565387619717,1
6,4,"A","incongruent",859.402366166716,1
6,5,"A","congruent",541.173098624019,1
6,6,"A","congruent",516.002617491394,1
6,7,"A","incongruent",826.126744257489,1
6,8,"A","incongruent",130.709645033869,1
6,9,"A","congruent",600.688717177324,1
6,10,"A","congruent",582.257204684652,1
6,11,"A","incongruent",450.055065997603,1
6,12,"A","incongruent",477.713001375929,1
6,13,"A","congruent",510.860582877644,1
6,14,"A","congruent",131.727361944924,1
6,15,"A","incongruent",712.755469371037,1
6,16,"A","incongruent",330.89735793461,1
6,17,"A","congruent",927.471219699066,1
6,18,"A","congruent",617.970143082948,1
6,19,"A","incongruent",400.890515333622,1
6,20,"A","incongruent",768.011807552572,1
6,21,"A","congruent",432.175418778967,1
6,22,"A","congruent",713.766656486615,1
6,23,"A","incongruent",464.443479470013,1
6,24,"A","incongruent",615.589967019725,1
6,25,"A","congruent",642.475239713724,1
6,26,"A","congruent",402.799688044792,1
6,27,"A","incongruent",484.649480955903,1
6,28,"A","incongruent",484.407247672484,1
6,29,"A","congruent",448.42447767662,1
6,30,"A","congruent",501.584563751485,1
6,31,"A","incongruent",654.545605738135,1
6,32,"A","incongruent",260.803886157073,1
6,33,"A","congruent",753.759107994804,1
6,34,"A","congruent",515.728241653168,1
6,35,"A","incongruent",871.02758266162,1
6,36,"A","incongruent",612.600002439505,1
6,37,"A","congruent",370.318485675054,1
6,38,"A","congruent",401.47258783235,1
6,39,"A","incongruent",631.176527588336,1
6,40,"A","incongruent",279.598403536491,1
6,41,"A","congruent",406.354132900633,1
6,42,"A","congruent",810.508958512222,1
6,43,"A","incongruent",579.548103197785,1
6,44,"A","incongruent",703.045463367631,1
6,45,"A","congruent",445.400017558939,1
6,46,"A","congruent",664.639145291192,1
6,47,"A","incongruent",753.532355761445,1
6,48,"A","incongruent",650.831881939292,1
6,49,"A","congruent",187.720916874098,1
6,50,"A","congruent",564.798441918257,1
6,51,"A","incongruent",229.566127861879,1
6,52,"A","incongruent",550.392398817453,1
6,53,"A","congruent",579.726886929896,1
6,54,"A","congruent",192.948476263217,1
6,55,"A","incongruent",437.427650209144,1
6,56,"A","incongruent",662.417501866343,1
6,57,"A","congruent",202.99944292081,1
6,58,"A","congruent",801.022886221308,1
6,59,"A","incongruent",457.262794947555,1
6,60,"A","incongruent",458.085939871262,1
6,61,"A","congruent",537.376444927774,1
6,62,"A","congruent",802.912025200322,1
6,63,"A","incongruent",518.247262770836,1
6,64,"A","incongruent",238.131234935808,1
6,65,"A","congruent",400.909900410575,1
6,66,"A","congruent",124.825647765629,1
6,67,"A","incongruent",509.53194094746,1
6,68,"A","incongruent",840.029621050922,1
6,69,"A","congruent",654.853428235357,1
6,70,"A","congruent",707.348639143434,1
6,71,"A","incongruent",143.467016129083,1
6,72,"A","incongruent",525.749618648952,1
6,73,"A","congruent",529.92027958045,1
6,74,"A","congruent",521.198743647653,1
6,75,"A","incongruent",266.180605168518,1
6,76,"A","incongruent",233.960790359682,1
6,77,"A","congruent",395.984130800587,1
6,78,"A","congruent",244.3021396245,1
6,79,"A","incongruent",537.598537117876,1
6,80,"A","incongruent",526.758311919012,1
6,1,"B","congruent",629.116924959585,1
6,2,"B","congruent",551.521796630165,1
6,3,"B","incongruent",620.589525645889,1
6,4,"B","incongruent",760.703413563883,1
6,5,"B","congruent",426.559914912333,1
6,6,"B","congruent",647.709881901461,1
6,7,"B","incongruent",290.236057143338,1
6,8,"B","incongruent",481.470128503585,1
6,9,"B","congruent",771.285246824437,1
6,10,"B","congruent",153.520560310583,1
6,11,"B","incongruent",223.306410749191,1
6,12,"B","incongruent",365.890082445253,1
6,13,"B","congruent",852.258480127706,1
6,14,"B","congruent",572.250352229397,1
6,15,"B","incongruent",421.338519532023,1
6,16,"B","incongruent",331.864409271392,1
6,17,"B","congruent",582.685756489909,1
6,18,"B","congruent",687.936240526374,1
6,19,"B","incongruent",602.324168112223,1
6,20,"B","incongruent",4.33705707923576,1
6,21,"B","congruent",94.9718248656241,1
6,22,"B","congruent",584.073141994985,1
6,23,"B","incongruent",510.098296880153,1
6,24,"B","incongruent",394.790631696794,1
6,25,"B","congruent",369.486217669882,1
6,26,"B","congruent",638.66564580445,1
6,27,"B","incongruent",715.441904768037,1
6,28,"B","incongruent",411.733103843434,1
6,29,"B","congruent",828.794015585808,1
6,30,"B","congruent",312.792516881258,1
6,31,"B","incongruent",427.223816384766,1
6,32,"B","incongruent",618.033050981691,1
6,33,"B","congruent",693.786963128129,1
6,34,"B","congruent",593.48421985148,1
6,35,"B","incongruent",581.811564426079,1
6,36,"B","incongruent",440.232934443311,1
6,37,"B","congruent",563.212902517117,1
6,38,"B","congruent",216.720442937259,1
6,39,"B","incongruent",337.380162572427,1
6,40,"B","incongruent",125.374407911431,1
6,41,"B","congruent",576.856909546448,1
6,42,"B","congruent",533.27281372109,1
6,43,"B","incongruent",736.065887556988,1
6,44,"B","incongruent",548.915467780688,1
6,45,"B","congruent",460.050119457594,1
6,46,"B","congruent",584.753408720496,1
6,47,"B","incongruent",365.531528932642,1
6,48,"B","incongruent",560.274418157795,1
6,49,"B","congruent",670.64887005958,1
6,50,"B","congruent",566.725222443219,1
6,51,"B","incongruent",421.616660145716,1
6,52,"B","incongruent",612.664161585804,1
6,53,"B","congruent",233.503697214717,1
6,54,"B","congruent",488.448223433766,1
6,55,"B","incongruent",109.154162458942,1
6,56,"B","incongruent",215.033444798922,1
6,57,"B","congruent",688.604947617931,1
6,58,"B","congruent",335.433683453273,1
6,59,"B","incongruent",292.787121144674,1
6,60,"B","incongruent",718.528463752343,1
6,61,"B","congruent",586.59957627896,1
6,62,"B","congruent",491.425574923241,1
6,63,"B","incongruent",341.793321914025,1
6,64,"B","incongruent",870.599202363729,1
6,65,"B","congruent",233.63644634318,1
6,66,"B","congruent",443.547049296398,1
6,67,"B","incongruent",388.575199094444,1
6,68,"B","incongruent",375.156915151527,1
6,69,"B","congruent",274.667178093681,1
6,70,"B","congruent",606.699591084394,1
6,71,"B","incongruent",433.067951931979,1
6,72,"B","incongruent",436.192645748239,1
6,73,"B","congruent",711.904367221309,1
6,74,"B","congruent",441.819770557008,1
6,75,"B","incongruent",443.235536514065,1
6,76,"B","incongruent",482.363887508482,1
6,77,"B","congruent",432.187771583916,1
6,78,"B","congruent",576.195828332797,1
6,79,"B","incongruent",924.886094362692,1
6,80,"B","incongruent",346.6795553131,1
7,1,"A","congruent",350.698392570168,1
7,2,"A","congruent",523.643857759165,1
7,3,"A","incongruent",534.99414260106,1
7,4,"A","incongruent",449.993483457436,1
7,5,"A","congruent",704.679977161511,1
7,6,"A","congruent",394.223319234191,1
7,7,"A","incongruent",796.037744186248,1
7,8,"A","incongruent",345.230196734967,1
7,9,"A","congruent",667.050363443017,1
7,10,"A","congruent",371.100925915067,1
7,11,"A","incongruent",623.70338608933,1
7,12,"A","incongruent",549.534904856953,1
7,13,"A","congruent",839.719132301265,1
7,14,"A","congruent",608.975227821987,1
7,15,"A","incongruent",420.772207253185,1
7,16,"A","incongruent",499.762833978037,1
7,17,"A","congruent",332.985783083657,1
7,18,"A","congruent",350.719084657948,1
7,19,"A","incongruent",527.018645356578,1
7,20,"A","incongruent",491.646526508663,1
7,21,"A","congruent",443.019177430675,1
7,22,"A","congruent",363.759922146678,1
7,23,"A","incongruent",329.166926509802,1
7,24,"A","incongruent",272.605901140565,1
7,25,"A","congruent",210.544127002356,1
7,26,"A","congruent",703.654595973388,1
7,27,"A","incongruent",406.794299559033,1
7,28,"A","incongruent",286.51275594999,1
7,29,"A","congruent",334.010810393453,1
7,30,"A","congruent",608.578408980823,1
7,31,"A","incongruent",405.178754714994,1
7,32,"A","incongruent",551.138208355812,1
7,33,"A","congruent",184.726342196726,1
7,34,"A","congruent",435.18093762239,1
7,35,"A","incongruent",390.577723753346,1
7,36,"A","incongruent",423.851476352314,1
7,37,"A","congruent",844.846501053161,1
7,38,"A","congruent",687.452843130521,1
7,39,"A","incongruent",299.488936601586,1
7,40,"A","incongruent",671.778119446878,1
7,41,"A","congruent",374.199655085401,1
7,42,"A","congruent",406.704489732692,1
7,43,"A","incongruent",510.140065308898,1
7,44,"A","incongruent",253.624385956384,1
7,45,"A","congruent",329.455824996235,1
7,46,"A","congruent",515.432062920876,1
7,47,"A","incongruent",-18.6912824574298,1
7,48,"A","incongruent",499.410423334098,1
7,49,"A","congruent",305.611410233834,1
7,50,"A","congruent",239.43865655741,1
7,51,"A","incongruent",877.836670181232,1
7,52,"A","incongruent",570.38129432169,1
7,53,"A","congruent",782.927327231056,1
7,54,"A","congruent",720.536399318144,1
7,55,"A","incongruent",269.378484415874,1
7,56,"A","incongruent",188.388170429124,1
7,57,"A","congruent",782.420985778776,1
7,58,"A","congruent",419.10197426202,1
7,59,"A","incongruent",518.193820197749,1
7,60,"A","incongruent",409.518207837538,1
7,61,"A","congruent",326.445752274463,1
7,62,"A","congruent",182.834925218131,1
7,63,"A","incongruent",607.195765490963,1
7,64,"A","incongruent",518.815105981764,1
7,65,"A","congruent",413.909481855637,1
7,66,"A","congruent",341.588999622887,1
7,67,"A","incongruent",578.792180057324,1
7,68,"A","incongruent",552.988099274273,1
7,69,"A","congruent",673.269734958023,1
7,70,"A","congruent",670.077016118866,1
7,71,"A","incongruent",565.857344122341,1
7,72,"A","incongruent",556.579781361275,1
7,73,"A","congruent",360.04890160057,1
7,74,"A","congruent",537.463179198199,1
7,75,"A","incongruent",649.188423973015,1
7,76,"A","incongruent",463.785914049738,1
7,77,"A","congruent",488.01711980319,1
7,78,"A","congruent",699.919493140398,1
7,79,"A","incongruent",272.66936507113,1
7,80,"A","incongruent",508.113653658815,1
7,1,"B","congruent",236.745794459987,1
7,2,"B","congruent",303.366833176019,1
7,3,"B","incongruent",111.014742736241,1
7,4,"B","incongruent",746.242282086835,1
7,5,"B","congruent",622.24255491394,1
7,6,"B","congruent",501.610098256249,1
7,7,"B","incongruent",540.144992594131,1
7,8,"B","incongruent",413.608122909128,1
7,9,"B","congruent",419.863963976404,1
7,10,"B","congruent",846.798068578333,1
7,11,"B","incongruent",371.536897733874,1
7,12,"B","incongruent",641.813676509366,1
7,13,"B","congruent",929.528002799781,1
7,14,"B","congruent",420.863820898857,1
7,15,"B","incongruent",388.046972698381,1
7,16,"B","incongruent",794.162937633333,1
7,17,"B","congruent",474.398976536136,1
7,18,"B","congruent",305.495789558928,1
7,19,"B","incongruent",383.049587180995,1
7,20,"B","incongruent",-111.894937106238,1
7,21,"B","congruent",560.004568466386,1
7,22,"B","congruent",484.311930128553,1
7,23,"B","incongruent",522.950236562625,1
7,24,"B","incongruent",460.60996482252,1
7,25,"B","congruent",457.440937289354,1
7,26,"B","congruent",668.174271021972,1
7,27,"B","incongruent",439.057635151019,1
7,28,"B","incongruent",654.66477165257,1
7,29,"B","congruent",919.604654510912,1
7,30,"B","congruent",627.187179215606,1
7,31,"B","incongruent",416.580446952011,1
7,32,"B","incongruent",318.458027586875,1
7,33,"B","congruent",558.096253290484,1
7,34,"B","congruent",510.569808380891,1
7,35,"B","incongruent",514.880643505871,1
7,36,"B","incongruent",444.893853919446,1
7,37,"B","congruent",450.517389441392,1
7,38,"B","congruent",509.283068018288,1
7,39,"B","incongruent",466.279908028506,1
7,40,"B","incongruent",440.693360949394,1
7,41,"B","congruent",-10.8748546357931,1
7,42,"B","congruent",336.826592979135,1
7,43,"B","incongruent",673.951278996648,1
7,44,"B","incongruent",296.563464234599,1
7,45,"B","congruent",620.080202491153,1
7,46,"B","congruent",813.275098238104,1
7,47,"B","incongruent",363.981864174497,1
7,48,"B","incongruent",310.890569180332,1
7,49,"B","congruent",474.24899704461,1
7,50,"B","congruent",428.247079188995,1
7,51,"B","incongruent",255.553790258594,1
7,52,"B","incongruent",294.269298295021,1
7,53,"B","congruent",521.107759484427,1
7,54,"B","congruent",503.728485424401,1
7,55,"B","incongruent",453.839911573766,1
7,56,"B","incongruent",616.501963275572,1
7,57,"B","congruent",520.359852477801,1
7,58,"B","congruent",884.25759781191,1
7,59,"B","incongruent",583.371905261797,1
7,60,"B","incongruent",305.650086904108,1
7,61,"B","congruent",815.199649120754,1
7,62,"B","congruent",660.00154205557,1
7,63,"B","incongruent",872.201330164419,1
7,64,"B","incongruent",593.618909861901,1
7,65,"B","congruent",285.463855906356,1
7,66,"B","congruent",554.009599954168,1
7,67,"B","incongruent",603.672126728133,1
7,68,"B","incongruent",272.012261130949,1
7,69,"B","congruent",325.624806923896,1
7,70,"B","congruent",497.320571614648,1
7,71,"B","incongruent",876.516875361218,1
7,72,"B","incongruent",369.259267724814,1
7,73,"B","congruent",655.530539199335,1
7,74,"B","congruent",637.284114223241,1
7,75,"B","incongruent",798.015628759264,1
7,76,"B","incongruent",758.221705700629,1
7,77,"B","congruent",467.522778911517,1
7,78,"B","congruent",506.575031683129,1
7,79,"B","incongruent",624.886035150138,1
7,80,"B","incongruent",553.640983869776,1
8,1,"A","congruent",543.77595735245,1
8,2,"A","congruent",559.615555926925,1
8,3,"A","incongruent",531.114511899747,1
8,4,"A","incongruent",530.677911597267,1
8,5,"A","congruent",632.018874369408,1
8,6,"A","congruent",602.992569490877,1
8,7,"A","incongruent",715.893821652742,1
8,8,"A","incongruent",540.460075240153,1
8,9,"A","congruent",461.084412116884,1
8,10,"A","congruent",411.753384947095,1
8,11,"A","incongruent",738.640989465195,1
8,12,"A","incongruent",366.346529057547,1
8,13,"A","congruent",589.68003848965,1
8,14,"A","congruent",609.851288828114,1
8,15,"A","incongruent",457.312659622004,1
8,16,"A","incongruent",548.42433249347,1
8,17,"A","congruent",636.791459872795,1
8,18,"A","congruent",953.212471369628,1
8,19,"A","incongruent",291.615237311947,1
8,20,"A","incongruent",380.153720301221,1
8,21,"A","congruent",665.652697128682,1
8,22,"A","congruent",500.921387442652,1
8,23,"A","incongruent",968.584292808808,1
8,24,"A","incongruent",288.229383431101,1
8,25,"A","congruent",521.670512882288,1
8,26,"A","congruent",269.752233464504,1
8,27,"A","incongruent",784.692485139275,1
8,28,"A","incongruent",248.782764057131,1
8,29,"A","congruent",518.74287694697,1
8,30,"A","congruent",564.064105505121,1
8,31,"A","incongruent",94.5280652637166,1
8,32,"A","incongruent",197.058228385758,1
8,33,"A","congruent",101.566189653286,1
8,34,"A","congruent",723.084876163068,1
8,35,"A","incongruent",532.927780375201,1
8,36,"A","incongruent",684.073918258189,1
8,37,"A","congruent",77.1660420890749,1
8,38,"A","congruent",320.769797230328,1
8,39,"A","incongruent",267.060851928018,1
8,40,"A","incongruent",907.170041289756,1
8,41,"A","congruent",652.782970057271,1
8,42,"A","congruent",86.5012938320816,1
8,43,"A","incongruent",784.471479841163,1
8,44,"A","incongruent",623.077359125253,1
8,45,"A","congruent",492.708068742954,1
8,46,"A","congruent",190.636025543989,1
8,47,"A","incongruent",659.551376039388,1
8,48,"A","incongruent",629.35362418671,1
8,49,"A","congruent",476.212446717637,1
8,50,"A","congruent",665.024069352405,1
8,51,"A","incongruent",455.390752246269,1
8,52,"A","incongruent",675.891178021282,1
8,53,"A","congruent",554.778367200561,1
8,54,"A","congruent",455.750936761241,1
8,55,"A","incongruent",413.911818162171,1
8,56,"A","incongruent",479.731570081569,1
8,57,"A","congruent",700.488838118897,1
8,58,"A","congruent",156.106795573925,1
8,59,"A","incongruent",128.798378290618,1
8,60,"A","incongruent",768.624103119636,1
8,61,"A","congruent",523.070127191112,1
8,62,"A","congruent",313.507143694446,1
8,63,"A","incongruent",166.741536968567,1
8,64,"A","incongruent",273.729427048585,1
8,65,"A","congruent",700.827956387518,1
8,66,"A","congruent",501.47284175369,1
8,67,"A","incongruent",386.300258570373,1
8,68,"A","incongruent",621.249310985409,1
8,69,"A","congruent",467.760629421736,1
8,70,"A","congruent",627.101527878868,1
8,71,"A","incongruent",626.062927820498,1
8,72,"A","incongruent",608.586469589803,1
8,73,"A","congruent",702.072101772547,1
8,74,"A","congruent",450.171289800479,1
8,75,"A","incongruent",398.166992417851,1
8,76,"A","incongruent",537.795067378838,1
8,77,"A","congruent",494.307504017025,1
8,78,"A","congruent",452.180244001431,1
8,79,"A","incongruent",319.793371016018,1
8,80,"A","incongruent",496.948080076143,1
8,1,"B","congruent",621.051511048324,1
8,2,"B","congruent",316.707995357452,1
8,3,"B","incongruent",716.146510000803,1
8,4,"B","incongruent",588.774778425977,1
8,5,"B","congruent",763.395045056021,1
8,6,"B","congruent",655.367817746999,1
8,7,"B","incongruent",376.415758929644,1
8,8,"B","incongruent",665.466548850453,1
8,9,"B","congruent",91.7912109809323,1
8,10,"B","congruent",419.343493994979,1
8,11,"B","incongruent",659.068525043923,1
8,12,"B","incongruent",290.244980366771,1
8,13,"B","congruent",372.717592710479,1
8,14,"B","congruent",-1.22957467004801,1
8,15,"B","incongruent",274.645072198079,1
8,16,"B","incongruent",527.044933112541,1
8,17,"B","congruent",50.1024699642258,1
8,18,"B","congruent",528.931267705908,1
8,19,"B","incongruent",345.859928644628,1
8,20,"B","incongruent",803.180944777364,1
8,21,"B","congruent",474.34109341104,1
8,22,"B","congruent",348.931600003814,1
8,23,"B","incongruent",334.709226269787,1
8,24,"B","incongruent",564.772516237384,1
8,25,"B","congruent",49.8838175981439,1
8,26,"B","congruent",842.991345624265,1
8,27,"B","incongruent",579.784183011723,1
8,28,"B","incongruent",707.7025587613,1
8,29,"B","congruent",216.20105015073,1
8,30,"B","congruent",512.304524014077,1
8,31,"B","incongruent",368.234892534492,1
8,32,"B","incongruent",342.935498781813,1
8,33,"B","congruent",621.87021401613,1
8,34,"B","congruent",574.215628337403,1
8,35,"B","incongruent",635.493080250557,1
8,36,"B","incongruent",316.634407836509,1
8,37,"B","congruent",866.954029216551,1
8,38,"B","congruent",534.145682611227,1
8,39,"B","incongruent",432.807277769467,1
8,40,"B","incongruent",449.95373941458,1
8,41,"B","congruent",567.706633479533,1
8,42,"B","congruent",316.853761912597,1
8,43,"B","incongruent",535.60228929834,1
8,44,"B","incongruent",743.992214398691,1
8,45,"B","congruent",550.956704327049,1
8,46,"B","congruent",474.2204214858,1
8,47,"B","incongruent",578.13127188141,1
8,48,"B","incongruent",306.877699180253,1
8,49,"B","congruent",317.722564917373,1
8,50,"B","congruent",264.359074688687,1
8,51,"B","incongruent",530.475291574347,1
8,52,"B","incongruent",584.113551783846,1
8,53,"B","congruent",666.260055335274,1
8,54,"B","congruent",111.794354491695,1
8,55,"B","incongruent",464.035739090562,1
8,56,"B","incongruent",409.368054358252,1
8,57,"B","congruent",828.222840940398,1
8,58,"B","congruent",128.891597676886,1
8,59,"B","incongruent",555.052618948779,1
8,60,"B","incongruent",298.452460488909,1
8,61,"B","congruent",709.503728250542,1
8,62,"B","congruent",391.09275211063,1
8,63,"B","incongruent",231.51900676757,1
8,64,"B","incongruent",676.566027693222,1
8,65,"B","congruent",626.371781934449,1
8,66,"B","congruent",450.621215057316,1
8,67,"B","incongruent",584.130013302248,1
8,68,"B","incongruent",527.079042044711,1
8,69,"B","congruent",771.989253857708,1
8,70,"B","congruent",269.578347773106,1
8,71,"B","incongruent",571.525106323892,1
8,72,"B","incongruent",425.189949938691,1
8,73,"B","congruent",438.34071204795,1
8,74,"B","congruent",390.008302305019,1
8,75,"B","incongruent",535.187347667541,1
8,76,"B","incongruent",526.001263173676,1
8,77,"B","congruent",285.28888627175,1
8,78,"B","congruent",629.50155739354,1
8,79,"B","incongruent",265.235050943244,1
8,80,"B","incongruent",161.904669103771,1
9,1,"A","congruent",0.457163992038886,1
9,2,"A","congruent",556.556930749963,1
9,3,"A","incongruent",396.86269286715,1
9,4,"A","incongruent",627.149729069794,1
9,5,"A","congruent",437.795966841128,1
9,6,"A","congruent",148.087196196643,1
9,7,"A","incongruent",505.565395441271,1
9,8,"A","incongruent",444.14547696904,1
9,9,"A","congruent",746.718118808326,1
9,10,"A","congruent",398.818083562464,1
9,11,"A","incongruent",492.287237795884,1
9,12,"A","incongruent",43.3704017690372,1
9,13,"A","congruent",441.753831200411,1
9,14,"A","congruent",209.738865577909,1
9,15,"A","incongruent",513.093285740611,1
9,16,"A","incongruent",292.365330065553,1
9,17,"A","congruent",817.544776659792,1
9,18,"A","congruent",373.682639903464,1
9,19,"A","incongruent",449.314593478279,1
9,20,"A","incongruent",610.203838727557,1
9,21,"A","congruent",283.662281022818,1
9,22,"A","congruent",651.816451948315,1
9,23,"A","incongruent",467.055107218206,1
9,24,"A","incongruent",470.955368536548,1
9,25,"A","congruent",386.932458751492,1
9,26,"A","congruent",420.746211707965,1
9,27,"A","incongruent",425.915865221033,1
9,28,"A","incongruent",103.305877243706,1
9,29,"A","congruent",435.010493019745,1
9,30,"A","congruent",346.736815662981,1
9,31,"A","incongruent",603.010359592742,1
9,32,"A","incongruent",542.843199318108,1
9,33,"A","congruent",645.521443352675,1
9,34,"A","congruent",676.227107165026,1
9,35,"A","incongruent",561.267174818667,1
9,36,"A","incongruent",528.673173948888,1
9,37,"A","congruent",635.937341772449,1
9,38,"A","congruent",505.978252246407,1
9,39,"A","incongruent",440.69753410493,1
9,40,"A","incongruent",287.187825931184,1
9,41,"A","congruent",402.210462238804,1
9,42,"A","congruent",433.313800589858,1
9,43,"A","incongruent",245.298497416643,1
9,44,"A","incongruent",484.583939686567,1
9,45,"A","congruent",442.795779798625,1
9,46,"A","congruent",657.879659755577,1
9,47,"A","incongruent",357.448181824994,1
9,48,"A","incongruent",359.981786522239,1
9,49,"A","congruent",526.505276950891,1
9,50,"A","congruent",363.84583924233,1
9,51,"A","incongruent",297.156449074426,1
9,52,"A","incongruent",373.360831668058,1
9,53,"A","congruent",453.079703211425,1
9,54,"A","congruent",478.967033243118,1
9,55,"A","incongruent",630.94687504442,1
9,56,"A","incongruent",695.023995093446,1
9,57,"A","congruent",575.413799709407,1
9,58,"A","congruent",448.062836096249,1
9,59,"A","incongruent",375.074046612695,1
9,60,"A","incongruent",311.427910400789,1
9,61,"A","congruent",475.200887397812,1
9,62,"A","congruent",390.765024234249,1
9,63,"A","incongruent",451.65458002112,1
9,64,"A","incongruent",863.185681706528,1
9,65,"A","congruent",368.920884918222,1
9,66,"A","congruent",734.8681842384,1
9,67,"A","incongruent",385.130235681698,1
9,68,"A","incongruent",618.040204725957,1
9,69,"A","congruent",786.874307447348,1
9,70,"A","congruent",952.044855710548,1
9,71,"A","incongruent",851.348608011441,1
9,72,"A","incongruent",796.180882065077,1
9,73,"A","congruent",172.985183590325,1
9,74,"A","congruent",492.65561210682,1
9,75,"A","incongruent",386.308894780761,1
9,76,"A","incongruent",618.921181539643,1
9,77,"A","congruent",323.309484771946,1
9,78,"A","congruent",219.747770460289,1
9,79,"A","incongruent",689.741274252843,1
9,80,"A","incongruent",249.822780433338,1
9,1,"B","congruent",291.51121606968,1
9,2,"B","congruent",522.727114026316,1
9,3,"B","incongruent",668.582729646101,1
9,4,"B","incongruent",248.880618483461,1
9,5,"B","congruent",614.278247492407,1
9,6,"B","congruent",334.211949405401,1
9,7,"B","incongruent",401.003386773467,1
9,8,"B","incongruent",477.188782871374,1
9,9,"B","congruent",90.8951971295641,1
9,10,"B","congruent",594.930601217147,1
9,11,"B","incongruent",586.137473646729,1
9,12,"B","incongruent",248.950650425289,1
9,13,"B","congruent",385.461797512398,1
9,14,"B","congruent",831.244565336883,1
9,15,"B","incongruent",301.038947991045,1
9,16,"B","incongruent",436.314690211806,1
9,17,"B","congruent",267.73437945623,1
9,18,"B","congruent",823.004160462063,1
9,19,"B","incongruent",615.967110027253,1
9,20,"B","incongruent",406.048983546763,1
9,21,"B","congruent",477.078592836481,1
9,22,"B","congruent",869.319229205229,1
9,23,"B","incongruent",468.524925907161,1
9,24,"B","incongruent",628.425407719609,1
9,25,"B","congruent",537.157666112715,1
9,26,"B","congruent",595.990793954397,1
9,27,"B","incongruent",152.125857379868,1
9,28,"B","incongruent",546.530898858804,1
9,29,"B","congruent",237.485997995354,1
9,30,"B","congruent",788.640603821123,1
9,31,"B","incongruent",583.244370065237,1
9,32,"B","incongruent",838.253553732888,1
9,33,"B","congruent",383.670923460066,1
9,34,"B","congruent",603.629623259334,1
9,35,"B","incongruent",586.061263122932,1
9,36,"B","incongruent",226.983892008545,1
9,37,"B","congruent",385.227858560501,1
9,38,"B","congruent",473.513680552176,1
9,39,"B","incongruent",275.756382738941,1
9,40,"B","incongruent",691.950070729607,1
9,41,"B","congruent",638.037372773567,1
9,42,"B","congruent",328.561664830486,1
9,43,"B","incongruent",878.85490945083,1
9,44,"B","incongruent",454.623062908963,1
9,45,"B","congruent",631.173380450018,1
9,46,"B","congruent",646.731382249974,1
9,47,"B","incongruent",464.095463663944,1
9,48,"B","incongruent",276.374148712152,1
9,49,"B","congruent",746.697583286024,1
9,50,"B","congruent",535.057570633017,1
9,51,"B","incongruent",576.690156693724,1
9,52,"B","incongruent",612.09109840211,1
9,53,"B","congruent",401.873980662846,1
9,54,"B","congruent",434.898210108967,1
9,55,"B","incongruent",371.032062431683,1
9,56,"B","incongruent",193.437908140008,1
9,57,"B","congruent",435.839599246999,1
9,58,"B","congruent",591.388647947938,1
9,59,"B","incongruent",468.819854106261,1
9,60,"B","incongruent",564.735575134471,1
9,61,"B","congruent",792.415794948414,1
9,62,"B","congruent",841.207021656207,1
9,63,"B","incongruent",494.902935853463,1
9,64,"B","incongruent",314.479110050902,1
9,65,"B","congruent",307.968687736829,1
9,66,"B","congruent",920.623322479567,1
9,67,"B","incongruent",186.779088284007,1
9,68,"B","incongruent",378.637118691231,1
9,69,"B","congruent",623.549061899873,1
9,70,"B","congruent",477.007548795406,1
9,71,"B","incongruent",405.23779320191,1
9,72,"B","incongruent",46.9644875554677,1
9,73,"B","congruent",190.616813194908,1
9,74,"B","congruent",324.781784373172,1
9,75,"B","incongruent",477.928657073982,1
9,76,"B","incongruent",695.58427218212,1
9,77,"B","congruent",373.691026803949,1
9,78,"B","congruent",293.294339817065,1
9,79,"B","incongruent",639.173853704714,1
9,80,"B","incongruent",691.175799413109,1
10,1,"A","congruent",402.410237463146,1
10,2,"A","congruent",123.703242927632,1
10,3,"A","incongruent",367.5555401523,1
10,4,"A","incongruent",451.857467999745,1
10,5,"A","congruent",561.900614770046,1
10,6,"A","congruent",427.103938842531,1
10,7,"A","incongruent",522.04084173947,1
10,8,"A","incongruent",897.264777674567,1
10,9,"A","congruent",342.878891796491,1
10,10,"A","congruent",781.026798943981,1
10,11,"A","incongruent",387.145829627431,1
10,12,"A","incongruent",652.357944798312,1
10,13,"A","congruent",523.106554868818,1
10,14,"A","congruent",521.752392944308,1
10,15,"A","incongruent",401.370393217114,1
10,16,"A","incongruent",560.274135722879,1
10,17,"A","congruent",642.110414440943,1
10,18,"A","congruent",364.489600794674,1
10,19,"A","incongruent",372.514114625745,1
10,20,"A","incongruent",243.129880827791,1
10,21,"A","congruent",2.39257294440972,1
10,22,"A","congruent",529.908063491009,1
10,23,"A","incongruent",507.23550554164,1
10,24,"A","incongruent",452.304080306006,1
10,25,"A","congruent",455.533458935814,1
10,26,"A","congruent",287.778177823832,1
10,27,"A","incongruent",524.404888946215,1
10,28,"A","incongruent",851.913009295914,1
10,29,"A","congruent",315.230744621208,1
10,30,"A","congruent",540.447207638231,1
10,31,"A","incongruent",181.510968146701,1
10,32,"A","incongruent",502.222790381293,1
10,33,"A","congruent",172.380531943848,1
10,34,"A","congruent",412.346963201759,1
10,35,"A","incongruent",660.055057605404,1
10,36,"A","incongruent",670.709894646088,1
10,37,"A","congruent",456.379217808971,1
10,38,"A","congruent",694.008817303842,1
10,39,"A","incongruent",433.684939691945,1
10,40,"A","incongruent",414.478321876071,1
10,41,"A","congruent",403.103469554765,1
10,42,"A","congruent",453.632879476961,1
10,43,"A","incongruent",911.424848675428,1
10,44,"A","incongruent",321.540631513594,1
10,45,"A","congruent",499.660322389412,1
10,46,"A","congruent",426.937334091501,1
10,47,"A","incongruent",503.877904966037,1
10,48,"A","incongruent",247.813310478062,1
10,49,"A","congruent",-6.58976740019722,1
10,50,"A","congruent",764.396828362379,1
10,51,"A","incongruent",728.306938468691,1
10,52,"A","incongruent",261.606490179606,1
10,53,"A","congruent",581.181009133064,1
10,54,"A","congruent",625.503596168585,1
10,55,"A","incongruent",527.285459916745,1
10,56,"A","incongruent",538.176784031076,1
10,57,"A","congruent",1019.36358805532,1
10,58,"A","congruent",720.156806747269,1
10,59,"A","incongruent",281.393034327814,1
10,60,"A","incongruent",620.467787467858,1
10,61,"A","congruent",315.961643300328,1
10,62,"A","congruent",609.838143553776,1
10,63,"A","incongruent",311.253342981539,1
10,64,"A","incongruent",256.390921324641,1
10,65,"A","congruent",961.23528551862,1
10,66,"A","congruent",511.517611603692,1
10,67,"A","incongruent",908.2841993882,1
10,68,"A","incongruent",724.21047556188,1
10,69,"A","congruent",950.495301497988,1
10,70,"A","congruent",778.488658797761,1
10,71,"A","incongruent",366.050795761888,1
10,72,"A","incongruent",406.709042285697,1
10,73,"A","congruent",389.073192003946,1
10,74,"A","congruent",751.653395282285,1
10,75,"A","incongruent",653.540430672446,1
10,76,"A","incongruent",752.707195329257,1
10,77,"A","congruent",474.599355452638,1
10,78,"A","congruent",435.112053185963,1
10,79,"A","incongruent",66.78821946218,1
10,80,"A","incongruent",632.285651961667,1
10,1,"B","congruent",746.008501232724,1
10,2,"B","congruent",484.068465194531,1
10,3,"B","incongruent",755.900757662798,1
10,4,"B","incongruent",469.714019823742,1
10,5,"B","congruent",783.611076583761,1
10,6,"B","congruent",461.549073220855,1
10,7,"B","incongruent",536.047347378912,1
10,8,"B","incongruent",559.284846525062,1
10,9,"B","congruent",315.107695477864,1
10,10,"B","congruent",107.529504327199,1
10,11,"B","incongruent",635.434800966364,1
10,12,"B","incongruent",605.263525319668,1
10,13,"B","congruent",607.159032050622,1
10,14,"B","congruent",197.033962512699,1
10,15,"B","incongruent",551.773996972662,1
10,16,"B","incongruent",325.756553323012,1
10,17,"B","congruent",419.370016430477,1
10,18,"B","congruent",449.288958502584,1
10,19,"B","incongruent",435.99809157687,1
10,20,"B","incongruent",465.841271408294,1
10,21,"B","congruent",505.952226766269,1
10,22,"B","congruent",392.118674332251,1
10,23,"B","incongruent",414.483299578347,1
10,24,"B","incongruent",633.447636733959,1
10,25,"B","congruent",724.827412713846,1
10,26,"B","congruent",637.597448688801,1
10,27,"B","incongruent",409.430302623902,1
10,28,"B","incongruent",708.215816875082,1
10,29,"B","congruent",395.399956545331,1
10,30,"B","congruent",680.443028032347,1
10,31,"B","incongruent",316.331206819381,1
10,32,"B","incongruent",744.439988322697,1
10,33,"B","congruent",252.619682656155,1
10,34,"B","congruent",161.791986282926,1
10,35,"B","incongruent",457.506784905223,1
10,36,"B","incongruent",594.062707260661,1
10,37,"B","congruent",688.871332156904,1
10,38,"B","congruent",274.025363461791,1
10,39,"B","incongruent",352.83374594505,1
10,40,"B","incongruent",726.483970703785,1
10,41,"B","congruent",213.531395252601,1
10,42,"B","congruent",556.485696554896,1
10,43,"B","incongruent",551.341041573448,1
10,44,"B","incongruent",513.732196679276,1
10,45,"B","congruent",129.273200334484,1
10,46,"B","congruent",291.031308432158,1
10,47,"B","incongruent",656.266610685127,1
10,48,"B","incongruent",379.375427034196,1
10,49,"B","congruent",404.626393840751,1
10,50,"B","congruent",464.707390271869,1
10,51,"B","incongruent",301.714086359743,1
10,52,"B","incongruent",436.374818907056,1
10,53,"B","congruent",514.820835928856,1
10,54,"B","congruent",376.240315218719,1
10,55,"B","incongruent",690.237960486204,1
10,56,"B","incongruent",314.426433933817,1
10,57,"B","congruent",595.678577758978,1
10,58,"B","congruent",220.103271739357,1
10,59,"B","incongruent",750.910985604783,1
10,60,"B","incongruent",677.708445502974,1
10,61,"B","congruent",786.612804166,1
10,62,"B","congruent",442.207838773845,1
10,63,"B","incongruent",285.234914809384,1
10,64,"B","incongruent",185.82453814148,1
10,65,"B","congruent",281.977640032301,1
10,66,"B","congruent",422.390425204316,1
10,67,"B","incongruent",550.713331959568,1
10,68,"B","incongruent",379.260786174396,1
10,69,"B","congruent",737.017244846499,1
10,70,"B","congruent",444.251854214594,1
10,71,"B","incongruent",386.119089257957,1
10,72,"B","incongruent",584.543776778622,1
10,73,"B","congruent",175.313163079779,1
10,74,"B","congruent",328.22588916699,1
10,75,"B","incongruent",538.750937678667,1
10,76,"B","incongruent",485.252994782679,1
10,77,"B","congruent",630.140457860173,1
10,78,"B","congruent",382.67912163208,1
10,79,"B","incongruent",554.718398724581,1
10,80,"B","incongruent",465.705810949727,1
11,1,"A","congruent",342.43191102462,1
11,2,"A","congruent",657.126943710299,1
11,3,"A","incongruent",553.085026327131,1
11,4,"A","incongruent",364.959810347486,1
11,5,"A","congruent",244.031112403747,1
11,6,"A","congruent",367.61696437332,1
11,7,"A","incongruent",513.242209901876,1
11,8,"A","incongruent",639.114111216791,1
11,9,"A","congruent",771.409148630033,1
11,10,"A","congruent",500.543924031628,1
11,11,"A","incongruent",478.88269819949,1
11,12,"A","incongruent",260.652977017755,1
11,13,"A","congruent",711.320986354797,1
11,14,"A","congruent",553.201822811126,1
11,15,"A","incongruent",653.649610777208,1
11,16,"A","incongruent",430.719618746004,1
11,17,"A","congruent",493.956723306382,1
11,18,"A","congruent",335.183491335801,1
11,19,"A","incongruent",144.122978199629,1
11,20,"A","incongruent",325.007270294411,1
11,21,"A","congruent",525.991071777605,1
11,22,"A","congruent",638.718454843729,1
11,23,"A","incongruent",569.941760716767,1
11,24,"A","incongruent",421.349001190569,1
11,25,"A","congruent",694.826399791369,1
11,26,"A","congruent",807.776769183949,1
11,27,"A","incongruent",737.744997146352,1
11,28,"A","incongruent",976.433442309135,1
11,29,"A","congruent",108.954467654232,1
11,30,"A","congruent",383.265389564376,1
11,31,"A","incongruent",125.008256306734,1
11,32,"A","incongruent",476.57306624445,1
11,33,"A","congruent",542.078964111823,1
11,34,"A","congruent",276.451483494232,1
11,35,"A","incongruent",563.19242378567,1
11,36,"A","incongruent",898.082742006225,1
11,37,"A","congruent",319.921617683687,1
11,38,"A","congruent",370.549615843807,1
11,39,"A","incongruent",-7.21501285687617,1
11,40,"A","incongruent",473.939660808801,1
11,41,"A","congruent",456.707381178075,1
11,42,"A","congruent",211.960698978987,1
11,43,"A","incongruent",460.020404917821,1
11,44,"A","incongruent",551.720354613386,1
11,45,"A","congruent",523.193386402444,1
11,46,"A","congruent",712.959001236094,1
11,47,"A","incongruent",540.324967967328,1
11,48,"A","incongruent",242.56381088442,1
11,49,"A","congruent",302.024661487688,1
11,50,"A","congruent",1141.34686775407,1
11,51,"A","incongruent",594.853123804637,1
11,52,"A","incongruent",180.975484447757,1
11,53,"A","congruent",193.209903435351,1
11,54,"A","congruent",182.07792333836,1
11,55,"A","incongruent",791.530894088404,1
11,56,"A","incongruent",662.595627117659,1
11,57,"A","congruent",464.234645291016,1
11,58,"A","congruent",714.659292658684,1
11,59,"A","incongruent",479.881989118646,1
11,60,"A","incongruent",590.69093085834,1
11,61,"A","congruent",291.405296377087,1
11,62,"A","congruent",421.156662253441,1
11,63,"A","incongruent",600.544105338746,1
11,64,"A","incongruent",482.701618039912,1
11,65,"A","congruent",511.35524289441,1
11,66,"A","congruent",42.8865936520073,1
11,67,"A","incongruent",585.432550292578,1
11,68,"A","incongruent",608.161086144378,1
11,69,"A","congruent",763.063135790507,1
11,70,"A","congruent",639.237423352402,1
11,71,"A","incongruent",376.661447174884,1
11,72,"A","incongruent",489.957455991159,1
11,73,"A","congruent",539.805325605644,1
11,74,"A","congruent",663.211599671756,1
11,75,"A","incongruent",431.273595341476,1
11,76,"A","incongruent",456.608985032256,1
11,77,"A","congruent",581.840154544799,1
11,78,"A","congruent",181.055568431715,1
11,79,"A","incongruent",430.855692696096,1
11,80,"A","incongruent",576.607388947594,1
11,1,"B","congruent",792.547278376521,1
11,2,"B","congruent",650.105666409587,1
11,3,"B","incongruent",648.116733397594,1
11,4,"B","incongruent",619.819169074863,1
11,5,"B","congruent",958.191009529601,1
11,6,"B","congruent",696.805728990454,1
11,7,"B","incongruent",645.848359554221,1
11,8,"B","incongruent",522.108670844258,1
11,9,"B","congruent",513.478961231344,1
11,10,"B","congruent",417.217775352909,1
11,11,"B","incongruent",635.111454977937,1
11,12,"B","incongruent",330.613929903226,1
11,13,"B","congruent",171.215585604466,1
11,14,"B","congruent",454.871681721453,1
11,15,"B","incongruent",576.59492189827,1
11,16,"B","incongruent",474.879508348692,1
11,17,"B","congruent",707.310071988827,1
11,18,"B","congruent",632.298624610696,1
11,19,"B","incongruent",507.334631915704,1
11,20,"B","incongruent",371.156952008159,1
11,21,"B","congruent",637.422425700092,1
11,22,"B","congruent",394.114086559004,1
11,23,"B","incongruent",673.376005163271,1
11,24,"B","incongruent",744.799941402263,1
11,25,"B","congruent",800.875672752879,1
11,26,"B","congruent",438.076916663484,1
11,27,"B","incongruent",338.727483049288,1
11,28,"B","incongruent",381.728328962109,1
11,29,"B","congruent",293.252322335296,1
11,30,"B","congruent",193.292376735056,1
11,31,"B","incongruent",351.467232255226,1
11,32,"B","incongruent",575.312969003281,1
11,33,"B","congruent",756.688612317432,1
11,34,"B","congruent",354.268656010743,1
11,35,"B","incongruent",503.25089706913,1
11,36,"B","incongruent",360.293796331372,1
11,37,"B","congruent",368.313903815317,1
11,38,"B","congruent",920.546344923112,1
11,39,"B","incongruent",460.109027520069,1
11,40,"B","incongruent",256.358448230772,1
11,41,"B","congruent",162.193667020271,1
11,42,"B","congruent",483.180968129364,1
11,43,"B","incongruent",723.135901949362,1
11,44,"B","incongruent",1119.27342621803,1
11,45,"B","congruent",83.9010843463852,1
11,46,"B","congruent",491.382023349541,1
11,47,"B","incongruent",407.700829445901,1
11,48,"B","incongruent",668.827375925227,1
11,49,"B","congruent",286.860830839622,1
11,50,"B","congruent",461.182057520073,1
11,51,"B","incongruent",921.590050412025,1
11,52,"B","incongruent",761.92132388057,1
11,53,"B","congruent",737.72762972259,1
11,54,"B","congruent",434.335242900587,1
11,55,"B","incongruent",663.467657402226,1
11,56,"B","incongruent",367.128333696744,1
11,57,"B","congruent",335.883313644389,1
11,58,"B","congruent",589.686125788635,1
11,59,"B","incongruent",285.244576951112,1
11,60,"B","incongruent",271.516648416198,1
11,61,"B","congruent",511.959913405035,1
11,62,"B","congruent",373.364392634139,1
11,63,"B","incongruent",225.30062164205,1
11,64,"B","incongruent",635.38351889155,1
11,65,"B","congruent",394.169426707077,1
11,66,"B","congruent",501.753144466771,1
11,67,"B","incongruent",449.503996705747,1
11,68,"B","incongruent",660.399049285399,1
11,69,"B","congruent",508.195787872778,1
11,70,"B","congruent",244.863072614436,1
11,71,"B","incongruent",397.348821930725,1
11,72,"B","incongruent",717.045198412479,1
11,73,"B","congruent",584.090242265869,1
11,74,"B","congruent",251.568629345556,1
11,75,"B","incongruent",795.33827819041,1
11,76,"B","incongruent",514.436052691523,1
11,77,"B","congruent",496.063382709313,1
11,78,"B","congruent",552.435764405481,1
11,79,"B","incongruent",733.293645767188,1
11,80,"B","incongruent",466.57320974722,1
12,1,"A","congruent",685.256394060658,1
12,2,"A","congruent",549.408762940898,1
12,3,"A","incongruent",537.133631193411,1
12,4,"A","incongruent",150.926239428939,1
12,5,"A","congruent",445.299865288248,1
12,6,"A","congruent",326.010843205123,1
12,7,"A","incongruent",498.988929320461,1
12,8,"A","incongruent",853.638213407531,1
12,9,"A","congruent",589.816758907804,1
12,10,"A","congruent",355.841038420294,1
12,11,"A","incongruent",480.290573400704,1
12,12,"A","incongruent",339.094130680569,1
12,13,"A","congruent",514.216620705298,1
12,14,"A","congruent",367.58823389037,1
12,15,"A","incongruent",498.832765752323,1
12,16,"A","incongruent",14.9516286367461,1
12,17,"A","congruent",198.898398197841,1
12,18,"A","congruent",326.789818809736,1
12,19,"A","incongruent",344.057470516166,1
12,20,"A","incongruent",259.175444356833,1
12,21,"A","congruent",543.783965937454,1
12,22,"A","congruent",675.200625214476,1
12,23,"A","incongruent",463.085693564722,1
12,24,"A","incongruent",360.275166888634,1
12,25,"A","congruent",505.53916275698,1
12,26,"A","congruent",614.539695596149,1
12,27,"A","incongruent",509.822691488884,1
12,28,"A","incongruent",352.206350751743,1
12,29,"A","congruent",337.763182779087,1
12,30,"A","congruent",760.112004213375,1
12,31,"A","incongruent",518.008071439668,1
12,32,"A","incongruent",612.713629741406,1
12,33,"A","congruent",537.231422370256,1
12,34,"A","congruent",536.877203907239,1
12,35,"A","incongruent",504.351089230722,1
12,36,"A","incongruent",183.699448660084,1
12,37,"A","congruent",672.797353445342,1
12,38,"A","congruent",452.554452835838,1
12,39,"A","incongruent",661.780501921105,1
12,40,"A","incongruent",787.307570313761,1
12,41,"A","congruent",66.574937414904,1
12,42,"A","congruent",-209.244588870146,1
12,43,"A","incongruent",330.253529544966,1
12,44,"A","incongruent",582.850606357533,1
12,45,"A","congruent",250.176309947077,1
12,46,"A","congruent",678.90624899127,1
12,47,"A","incongruent",454.515798845693,1
12,48,"A","incongruent",485.259661012811,1
12,49,"A","congruent",1059.30158912528,1
12,50,"A","congruent",254.641120464243,1
12,51,"A","incongruent",685.191817666,1
12,52,"A","incongruent",453.911982262068,1
12,53,"A","congruent",393.345122072542,1
12,54,"A","congruent",651.182256893062,1
12,55,"A","incongruent",171.663138010538,1
12,56,"A","incongruent",236.707849760986,1
12,57,"A","congruent",484.67395259635,1
12,58,"A","congruent",469.042256439998,1
12,59,"A","incongruent",334.889876817582,1
12,60,"A","incongruent",586.787728066882,1
12,61,"A","congruent",878.181967818913,1
12,62,"A","congruent",471.97759813492,1
12,63,"A","incongruent",630.46128666244,1
12,64,"A","incongruent",460.985970722613,1
12,65,"A","congruent",683.092034012715,1
12,66,"A","congruent",538.95707587547,1
12,67,"A","incongruent",466.883482241485,1
12,68,"A","incongruent",496.338256237098,1
12,69,"A","congruent",85.8453794714991,1
12,70,"A","congruent",197.670588243582,1
12,71,"A","incongruent",133.655327565223,1
12,72,"A","incongruent",219.438985932747,1
12,73,"A","congruent",341.059143783271,1
12,74,"A","congruent",258.007579655316,1
12,75,"A","incongruent",570.232615140378,1
12,76,"A","incongruent",439.349965328404,1
12,77,"A","congruent",603.049641459408,1
12,78,"A","congruent",424.277255792826,1
12,79,"A","incongruent",158.359032087735,1
12,80,"A","incongruent",798.410271851277,1
12,1,"B","congruent",523.950990443449,1
12,2,"B","congruent",177.425772212846,1
12,3,"B","incongruent",249.461865316624,1
12,4,"B","incongruent",368.887484216544,1
12,5,"B","congruent",381.884861260976,1
12,6,"B","congruent",375.965749867383,1
12,7,"B","incongruent",482.958718146213,1
12,8,"B","incongruent",760.806939729398,1
12,9,"B","congruent",654.192614539981,1
12,10,"B","congruent",540.663327868694,1
12,11,"B","incongruent",523.518635077828,1
12,12,"B","incongruent",747.161342691953,1
12,13,"B","congruent",644.074548388719,1
12,14,"B","congruent",320.467096502544,1
12,15,"B","incongruent",394.619960270959,1
12,16,"B","incongruent",251.908010637751,1
12,17,"B","congruent",643.687045485393,1
12,18,"B","congruent",633.307186458899,1
12,19,"B","incongruent",448.113352040462,1
12,20,"B","incongruent",531.512805615538,1
12,21,"B","congruent",391.824635399502,1
12,22,"B","congruent",564.597822006046,1
12,23,"B","incongruent",454.75693463063,1
12,24,"B","incongruent",616.754380127823,1
12,25,"B","congruent",354.137625290493,1
12,26,"B","congruent",614.202796008106,1
12,27,"B","incongruent",900.342735567691,1
12,28,"B","incongruent",596.100835842072,1
12,29,"B","congruent",455.882033987261,1
12,30,"B","congruent",647.779921734656,1
12,31,"B","incongruent",518.983248997475,1
12,32,"B","incongruent",508.964354416933,1
12,33,"B","congruent",382.039943927381,1
12,34,"B","congruent",610.857563895243,1
12,35,"B","incongruent",416.332522000847,1
12,36,"B","incongruent",842.578360234834,1
12,37,"B","congruent",90.3286336277508,1
12,38,"B","congruent",354.41718739349,1
12,39,"B","incongruent",492.21756006372,1
12,40,"B","incongruent",753.846328672807,1
12,41,"B","congruent",423.955598160384,1
12,42,"B","congruent",348.622823269883,1
12,43,"B","incongruent",189.36840993109,1
12,44,"B","incongruent",324.765660412665,1
12,45,"B","congruent",537.821194547108,1
12,46,"B","congruent",418.896440567642,1
12,47,"B","incongruent",230.263587929705,1
12,48,"B","incongruent",199.352897267999,1
12,49,"B","congruent",233.714873976415,1
12,50,"B","congruent",122.692420225564,1
12,51,"B","incongruent",443.765476413529,1
12,52,"B","incongruent",688.484742711849,1
12,53,"B","congruent",576.482179011532,1
12,54,"B","congruent",131.824706887387,1
12,55,"B","incongruent",569.258302764474,1
12,56,"B","incongruent",406.050291432824,1
12,57,"B","congruent",213.743376347642,1
12,58,"B","congruent",61.9536156738233,1
12,59,"B","incongruent",312.399032660114,1
12,60,"B","incongruent",537.227804020971,1
12,61,"B","congruent",350.69200863862,1
12,62,"B","congruent",291.895439705745,1
12,63,"B","incongruent",397.935979761489,1
12,64,"B","incongruent",11.43623451536,1
12,65,"B","congruent",430.661220174308,1
12,66,"B","congruent",645.069397619563,1
12,67,"B","incongruent",302.039463801687,1
12,68,"B","incongruent",920.303068589441,1
12,69,"B","congruent",402.110680448232,1
12,70,"B","congruent",338.503189704788,1
12,71,"B","incongruent",570.195309903619,1
12,72,"B","incongruent",628.614785560711,1
12,73,"B","congruent",1013.7495402302,1
12,74,"B","congruent",330.81873026181,1
12,75,"B","incongruent",765.630196115762,1
12,76,"B","incongruent",297.919168380753,1
12,77,"B","congruent",262.918406068662,1
12,78,"B","congruent",123.18897732239,1
12,79,"B","incongruent",362.882168516495,1
12,80,"B","incongruent",343.621118562416,1
13,1,"A","congruent",478.615210630371,1
13,2,"A","congruent",399.036383869135,1
13,3,"A","incongruent",530.620449295534,1
13,4,"A","incongruent",301.7970508147,1
13,5,"A","congruent",537.719969821752,1
13,6,"A","congruent",446.592133368112,1
13,7,"A","incongruent",527.907318137485,1
13,8,"A","incongruent",301.133848757729,1
13,9,"A","congruent",521.32071844768,1
13,10,"A","congruent",517.083553612208,1
13,11,"A","incongruent",432.410870915407,1
13,12,"A","incongruent",559.729141707671,1
13,13,"A","congruent",186.133158299135,1
13,14,"A","congruent",682.566299753532,1
13,15,"A","incongruent",472.002915374946,1
13,16,"A","incongruent",637.830762285264,1
13,17,"A","congruent",339.447807152557,1
13,18,"A","congruent",160.312890344604,1
13,19,"A","incongruent",458.421719821423,1
13,20,"A","incongruent",735.777892667838,1
13,21,"A","congruent",427.02931046123,1
13,22,"A","congruent",789.244951107275,1
13,23,"A","incongruent",395.441139240571,1
13,24,"A","incongruent",112.37451681452,1
13,25,"A","congruent",539.755958827995,1
13,26,"A","congruent",541.104393117256,1
13,27,"A","incongruent",720.393407256475,1
13,28,"A","incongruent",567.092363658428,1
13,29,"A","congruent",500.7743694977,1
13,30,"A","congruent",428.486286988809,1
13,31,"A","incongruent",861.70427279505,1
13,32,"A","incongruent",700.382157127646,1
13,33,"A","congruent",889.559407962861,1
13,34,"A","congruent",662.666363551256,1
13,35,"A","incongruent",506.872775841168,1
13,36,"A","incongruent",85.0339699050306,1
13,37,"A","congruent",280.605352047893,1
13,38,"A","congruent",465.543840519236,1
13,39,"A","incongruent",487.909075837238,1
13,40,"A","incongruent",670.468022929125,1
13,41,"A","congruent",866.265390833363,1
13,42,"A","congruent",232.729470036243,1
13,43,"A","incongruent",358.733236855528,1
13,44,"A","incongruent",473.051929806177,1
13,45,"A","congruent",576.915327917666,1
13,46,"A","congruent",456.544154517801,1
13,47,"A","incongruent",556.133109571864,1
13,48,"A","incongruent",683.926419966036,1
13,49,"A","congruent",-34.1799338829275,1
13,50,"A","congruent",252.608740495775,1
13,51,"A","incongruent",420.213725928503,1
13,52,"A","incongruent",590.075316875623,1
13,53,"A","congruent",279.963301380241,1
13,54,"A","congruent",575.78802977764,1
13,55,"A","incongruent",642.38282895871,1
13,56,"A","incongruent",280.635314287347,1
13,57,"A","congruent",245.542814774407,1
13,58,"A","congruent",585.614972923914,1
13,59,"A","incongruent",487.818747636874,1
13,60,"A","incongruent",312.556023426233,1
13,61,"A","congruent",857.838955959619,1
13,62,"A","congruent",439.154879203669,1
13,63,"A","incongruent",430.066872838829,1
13,64,"A","incongruent",262.667772206555,1
13,65,"A","congruent",487.890015514051,1
13,66,"A","congruent",642.025630303042,1
13,67,"A","incongruent",487.291333606966,1
13,68,"A","incongruent",787.76059579669,1
13,69,"A","congruent",460.131608991274,1
13,70,"A","congruent",616.739190147938,1
13,71,"A","incongruent",521.119476147053,1
13,72,"A","incongruent",590.873251697471,1
13,73,"A","congruent",401.668363544037,1
13,74,"A","congruent",454.894440895124,1
13,75,"A","incongruent",421.863517881077,1
13,76,"A","incongruent",459.798255904074,1
13,77,"A","congruent",117.552069149099,1
13,78,"A","congruent",330.15036952756,1
13,79,"A","incongruent",307.944882069345,1
13,80,"A","incongruent",668.073771582805,1
13,1,"B","congruent",381.781995901685,1
13,2,"B","congruent",427.331036059231,1
13,3,"B","incongruent",436.526303920735,1
13,4,"B","incongruent",905.532302379772,1
13,5,"B","congruent",720.248873085004,1
13,6,"B","congruent",400.992609664657,1
13,7,"B","incongruent",682.637943118829,1
13,8,"B","incongruent",444.009429862201,1
13,9,"B","congruent",218.920278435767,1
13,10,"B","congruent",338.939320911094,1
13,11,"B","incongruent",560.252817181334,1
13,12,"B","incongruent",260.331197637204,1
13,13,"B","congruent",271.512688381546,1
13,14,"B","congruent",-19.0902761502866,1
13,15,"B","incongruent",330.011979270721,1
13,16,"B","incongruent",567.212285761818,1
13,17,"B","congruent",512.854757716299,1
13,18,"B","congruent",414.543404730102,1
13,19,"B","incongruent",409.659295013811,1
13,20,"B","incongruent",235.468552341602,1
13,21,"B","congruent",412.178855697904,1
13,22,"B","congruent",72.5707543866334,1
13,23,"B","incongruent",475.676418558745,1
13,24,"B","incongruent",378.561590345639,1
13,25,"B","congruent",391.293196449996,1
13,26,"B","congruent",863.804410516757,1
13,27,"B","incongruent",464.383282248619,1
13,28,"B","incongruent",407.524299962499,1
13,29,"B","congruent",685.59527912479,1
13,30,"B","congruent",752.433705334823,1
13,31,"B","incongruent",657.139611781029,1
13,32,"B","incongruent",751.214747909685,1
13,33,"B","congruent",553.732628021663,1
13,34,"B","congruent",589.56124980497,1
13,35,"B","incongruent",534.581728612578,1
13,36,"B","incongruent",616.02901429758,1
13,37,"B","congruent",662.745686376012,1
13,38,"B","congruent",591.682592394055,1
13,39,"B","incongruent",290.876048517041,1
13,40,"B","incongruent",434.293202736266,1
13,41,"B","congruent",710.982325656384,1
13,42,"B","congruent",477.753228884169,1
13,43,"B","incongruent",552.024035287312,1
13,44,"B","incongruent",705.94455773608,1
13,45,"B","congruent",685.926744880128,1
13,46,"B","congruent",378.683144110794,1
13,47,"B","incongruent",387.765161071814,1
13,48,"B","incongruent",660.696223387397,1
13,49,"B","congruent",887.221076358769,1
13,50,"B","congruent",262.908975789994,1
13,51,"B","incongruent",708.198679935997,1
13,52,"B","incongruent",362.155398805112,1
13,53,"B","congruent",411.699380725873,1
13,54,"B","congruent",586.436979613815,1
13,55,"B","incongruent",703.691801258095,1
13,56,"B","incongruent",332.926698885755,1
13,57,"B","congruent",801.232544881954,1
13,58,"B","congruent",640.332899422261,1
13,59,"B","incongruent",520.714013980965,1
13,60,"B","incongruent",483.211998050072,1
13,61,"B","congruent",416.759960864621,1
13,62,"B","congruent",376.046572691217,1
13,63,"B","incongruent",619.639217545478,1
13,64,"B","incongruent",545.445792701198,1
13,65,"B","congruent",708.134002182229,1
13,66,"B","congruent",542.451737122942,1
13,67,"B","incongruent",111.544968561013,1
13,68,"B","incongruent",611.52578761028,1
13,69,"B","congruent",741.809950689755,1
13,70,"B","congruent",477.581466784519,1
13,71,"B","incongruent",508.971930970814,1
13,72,"B","incongruent",558.391699949608,1
13,73,"B","congruent",462.725020676422,1
13,74,"B","congruent",-87.7186182899852,1
13,75,"B","incongruent",751.281405281824,1
13,76,"B","incongruent",507.979320705148,1
13,77,"B","congruent",767.188877957322,1
13,78,"B","congruent",450.114151510717,1
13,79,"B","incongruent",375.128276735267,1
13,80,"B","incongruent",748.823562788181,1
14,1,"A","congruent",341.793991818375,1
14,2,"A","congruent",473.523327664094,1
14,3,"A","incongruent",376.316396361025,1
14,4,"A","incongruent",249.64156656781,1
14,5,"A","congruent",718.980125599659,1
14,6,"A","congruent",317.662988693866,1
14,7,"A","incongruent",507.99518402936,1
14,8,"A","incongruent",631.073228446589,1
14,9,"A","congruent",507.082101164878,1
14,10,"A","congruent",667.128484974944,1
14,11,"A","incongruent",108.01369976526,1
14,12,"A","incongruent",559.433224086008,1
14,13,"A","congruent",363.163011336308,1
14,14,"A","congruent",336.751128372015,1
14,15,"A","incongruent",421.12912785862,1
14,16,"A","incongruent",877.055311088837,1
14,17,"A","congruent",481.259501433957,1
14,18,"A","congruent",971.315339265272,1
14,19,"A","incongruent",748.015157855751,1
14,20,"A","incongruent",355.078156876814,1
14,21,"A","congruent",440.295472986289,1
14,22,"A","congruent",425.212957257633,1
14,23,"A","incongruent",660.535235661658,1
14,24,"A","incongruent",838.41641302552,1
14,25,"A","congruent",989.929765367403,1
14,26,"A","congruent",383.929350287843,1
14,27,"A","incongruent",727.13824190119,1
14,28,"A","incongruent",166.054893638024,1
14,29,"A","congruent",652.088630485572,1
14,30,"A","congruent",312.226706934237,1
14,31,"A","incongruent",762.618397583024,1
14,32,"A","incongruent",507.097241521023,1
14,33,"A","congruent",139.986038758687,1
14,34,"A","congruent",729.694522810162,1
14,35,"A","incongruent",681.415359156733,1
14,36,"A","incongruent",420.64712295468,1
14,37,"A","congruent",679.776437195829,1
14,38,"A","congruent",642.744748414971,1
14,39,"A","incongruent",531.851274891082,1
14,40,"A","incongruent",205.402408325011,1
14,41,"A","congruent",704.182986026083,1
14,42,"A","congruent",484.068333559261,1
14,43,"A","incongruent",445.567163732407,1
14,44,"A","incongruent",458.335975973713,1
14,45,"A","congruent",680.606902410278,1
14,46,"A","congruent",287.420765907336,1
14,47,"A","incongruent",403.959151800558,1
14,48,"A","incongruent",309.749441122886,1
14,49,"A","congruent",554.42666378153,1
14,50,"A","congruent",579.510213521387,1
14,51,"A","incongruent",196.274736400369,1
14,52,"A","incongruent",491.838670857538,1
14,53,"A","congruent",326.54373285505,1
14,54,"A","congruent",594.243710857172,1
14,55,"A","incongruent",427.635394890584,1
14,56,"A","incongruent",529.175921226346,1
14,57,"A","congruent",605.215828072755,1
14,58,"A","congruent",233.81921662196,1
14,59,"A","incongruent",339.183831611824,1
14,60,"A","incongruent",349.425559363018,1
14,61,"A","congruent",672.030756772132,1
14,62,"A","congruent",318.573778846673,1
14,63,"A","incongruent",380.770457902165,1
14,64,"A","incongruent",62.8490127153302,1
14,65,"A","congruent",738.369300148148,1
14,66,"A","congruent",688.892328967184,1
14,67,"A","incongruent",916.018277066356,1
14,68,"A","incongruent",830.4003233652,1
14,69,"A","congruent",475.047884651175,1
14,70,"A","congruent",624.496492962389,1
14,71,"A","incongruent",411.705102297724,1
14,72,"A","incongruent",328.880170695293,1
14,73,"A","congruent",337.691461386613,1
14,74,"A","congruent",681.555027393381,1
14,75,"A","incongruent",365.973565485793,1
14,76,"A","incongruent",186.734161470195,1
14,77,"A","congruent",616.568805255228,1
14,78,"A","congruent",479.623914189942,1
14,79,"A","incongruent",489.913747420416,1
14,80,"A","incongruent",427.737471191581,1
14,1,"B","congruent",551.875869523264,1
14,2,"B","congruent",352.605443517664,1
14,3,"B","incongruent",809.698951923527,1
14,4,"B","incongruent",196.331598385071,1
14,5,"B","congruent",621.267544857067,1
14,6,"B","congruent",634.305126546485,1
14,7,"B","incongruent",717.062381901335,1
14,8,"B","incongruent",-5.89648197575343,1
14,9,"B","congruent",538.665265198529,1
14,10,"B","congruent",309.021171881617,1
14,11,"B","incongruent",575.416761331789,1
14,12,"B","incongruent",434.703277283284,1
14,13,"B","congruent",435.866721780633,1
14,14,"B","congruent",524.44790385692,1
14,15,"B","incongruent",699.448639068755,1
14,16,"B","incongruent",681.114494690778,1
14,17,"B","congruent",280.290712365952,1
14,18,"B","congruent",244.680884284909,1
14,19,"B","incongruent",460.661905895104,1
14,20,"B","incongruent",494.176557741742,1
14,21,"B","congruent",185.228456200765,1
14,22,"B","congruent",415.700850652968,1
14,23,"B","incongruent",710.819189022184,1
14,24,"B","incongruent",882.621656801596,1
14,25,"B","congruent",434.084342279551,1
14,26,"B","congruent",560.799647497416,1
14,27,"B","incongruent",315.805955241567,1
14,28,"B","incongruent",665.321441531894,1
14,29,"B","congruent",334.322745334678,1
14,30,"B","congruent",637.410352298575,1
14,31,"B","incongruent",187.476724804711,1
14,32,"B","incongruent",381.163602416867,1
14,33,"B","congruent",571.972629065004,1
14,34,"B","congruent",371.270102991546,1
14,35,"B","incongruent",463.204119120473,1
14,36,"B","incongruent",627.437249589137,1
14,37,"B","congruent",660.391654774073,1
14,38,"B","congruent",122.25640257747,1
14,39,"B","incongruent",455.343458957027,1
14,40,"B","incongruent",371.547632094835,1
14,41,"B","congruent",738.45060255966,1
14,42,"B","congruent",411.948447384264,1
14,43,"B","incongruent",386.70278119898,1
14,44,"B","incongruent",797.332269786704,1
14,45,"B","congruent",158.533585585092,1
14,46,"B","congruent",697.354564839444,1
14,47,"B","incongruent",688.439863613695,1
14,48,"B","incongruent",337.361691989021,1
14,49,"B","congruent",489.672685336103,1
14,50,"B","congruent",753.427620751089,1
14,51,"B","incongruent",664.415789927551,1
14,52,"B","incongruent",629.787897762213,1
14,53,"B","congruent",195.81529361546,1
14,54,"B","congruent",144.505769270181,1
14,55,"B","incongruent",667.077812538978,1
14,56,"B","incongruent",633.381551606115,1
14,57,"B","congruent",977.86107334586,1
14,58,"B","congruent",730.443297024047,1
14,59,"B","incongruent",533.903267655547,1
14,60,"B","incongruent",753.779136800754,1
14,61,"B","congruent",486.353401482795,1
14,62,"B","congruent",928.266663021488,1
14,63,"B","incongruent",608.337126355334,1
14,64,"B","incongruent",735.740776665547,1
14,65,"B","congruent",554.151593665549,1
14,66,"B","congruent",552.238311632222,1
14,67,"B","incongruent",205.033558142045,1
14,68,"B","incongruent",870.725779670212,1
14,69,"B","congruent",335.442135367539,1
14,70,"B","congruent",402.972393728857,1
14,71,"B","incongruent",368.378976743261,1
14,72,"B","incongruent",489.02724527949,1
14,73,"B","congruent",611.216363755264,1
14,74,"B","congruent",603.478148124261,1
14,75,"B","incongruent",388.403656920369,1
14,76,"B","incongruent",454.071091097749,1
14,77,"B","congruent",516.194516464353,1
14,78,"B","congruent",539.394612233988,1
14,79,"B","incongruent",428.364051147595,1
14,80,"B","incongruent",313.43827295094,1
15,1,"A","congruent",648.173497358181,1
15,2,"A","congruent",537.860387156297,1
15,3,"A","incongruent",597.066003954464,1
15,4,"A","incongruent",382.212861880741,1
15,5,"A","congruent",606.457123720553,1
15,6,"A","congruent",829.081364144466,1
15,7,"A","incongruent",364.069585602872,1
15,8,"A","incongruent",479.995427434086,1
15,9,"A","congruent",371.640935229464,1
15,10,"A","congruent",340.852845776537,1
15,11,"A","incongruent",8.81213000983638,1
15,12,"A","incongruent",825.646341903412,1
15,13,"A","congruent",206.074628324878,1
15,14,"A","congruent",814.887805230096,1
15,15,"A","incongruent",625.874134602859,1
15,16,"A","incongruent",795.259279639025,1
15,17,"A","congruent",449.679580520503,1
15,18,"A","congruent",870.062362844053,1
15,19,"A","incongruent",517.127151205075,1
15,20,"A","incongruent",665.452523711305,1
15,21,"A","congruent",392.318958636663,1
15,22,"A","congruent",675.722281631348,1
15,23,"A","incongruent",216.89865121406,1
15,24,"A","incongruent",527.923847697863,1
15,25,"A","congruent",314.038361970187,1
15,26,"A","congruent",574.16547671071,1
15,27,"A","incongruent",643.487629521163,1
15,28,"A","incongruent",651.789827377792,1
15,29,"A","congruent",543.745211992498,1
15,30,"A","congruent",76.4097452070203,1
15,31,"A","incongruent",204.843718147992,1
15,32,"A","incongruent",221.294911211612,1
15,33,"A","congruent",283.872748012711,1
15,34,"A","congruent",561.923635211346,1
15,35,"A","incongruent",261.794494659457,1
15,36,"A","incongruent",327.244031549766,1
15,37,"A","congruent",247.831293490776,1
15,38,"A","congruent",408.248798645283,1
15,39,"A","incongruent",324.645482463933,1
15,40,"A","incongruent",713.117289918761,1
15,41,"A","congruent",346.739780822328,1
15,42,"A","congruent",550.871259606226,1
15,43,"A","incongruent",260.192769460215,1
15,44,"A","incongruent",167.912563291898,1
15,45,"A","congruent",761.775455650601,1
15,46,"A","congruent",750.198847069928,1
15,47,"A","incongruent",341.910881253372,1
15,48,"A","incongruent",634.414500931897,1
15,49,"A","congruent",554.69756556468,1
15,50,"A","congruent",717.665392663432,1
15,51,"A","incongruent",255.299815977623,1
15,52,"A","incongruent",562.97759511621,1
15,53,"A","congruent",385.777651257537,1
15,54,"A","congruent",454.229377352312,1
15,55,"A","incongruent",399.515055050831,1
15,56,"A","incongruent",428.53845434286,1
15,57,"A","congruent",479.609691247286,1
15,58,"A","congruent",359.547801962926,1
15,59,"A","incongruent",473.513959845417,1
15,60,"A","incongruent",145.528120377486,1
15,61,"A","congruent",123.781294249765,1
15,62,"A","congruent",493.306046429154,1
15,63,"A","incongruent",652.023192147023,1
15,64,"A","incongruent",760.778905682315,1
15,65,"A","congruent",743.969191253092,1
15,66,"A","congruent",560.306886983158,1
15,67,"A","incongruent",313.755234211956,1
15,68,"A","incongruent",488.044480532721,1
15,69,"A","congruent",399.957621709786,1
15,70,"A","congruent",401.557204638729,1
15,71,"A","incongruent",625.424784522817,1
15,72,"A","incongruent",335.299365438638,1
15,73,"A","congruent",517.108029792183,1
15,74,"A","congruent",345.446441752497,1
15,75,"A","incongruent",-47.1288664310954,1
15,76,"A","incongruent",657.328186055541,1
15,77,"A","congruent",875.48139301592,1
15,78,"A","congruent",657.37304918064,1
15,79,"A","incongruent",503.478565643826,1
15,80,"A","incongruent",467.288419811698,1
15,1,"B","congruent",582.62573105149,1
15,2,"B","congruent",805.734620827472,1
15,3,"B","incongruent",628.627765122397,1
15,4,"B","incongruent",203.581659616078,1
15,5,"B","congruent",869.472889911806,1
15,6,"B","congruent",450.763295361143,1
15,7,"B","incongruent",625.520881587001,1
15,8,"B","incongruent",158.545918936466,1
15,9,"B","congruent",576.571546608947,1
15,10,"B","congruent",698.648993145158,1
15,11,"B","incongruent",858.400155654752,1
15,12,"B","incongruent",1021.61197349435,1
15,13,"B","congruent",137.495730688142,1
15,14,"B","congruent",178.124632087425,1
15,15,"B","incongruent",280.719547325798,1
15,16,"B","incongruent",565.471172583187,1
15,17,"B","congruent",625.470526933169,1
15,18,"B","congruent",530.364295998769,1
15,19,"B","incongruent",588.083704183397,1
15,20,"B","incongruent",698.126850543821,1
15,21,"B","congruent",534.542012397274,1
15,22,"B","congruent",554.234188484413,1
15,23,"B","incongruent",380.038420345697,1
15,24,"B","incongruent",401.605624137568,1
15,25,"B","congruent",295.788042072544,1
15,26,"B","congruent",271.765247736853,1
15,27,"B","incongruent",299.257245596095,1
15,28,"B","incongruent",449.670746815253,1
15,29,"B","congruent",466.456062350383,1
15,30,"B","congruent",625.134584466776,1
15,31,"B","incongruent",654.139899350561,1
15,32,"B","incongruent",331.874492802966,1
15,33,"B","congruent",398.911114054164,1
15,34,"B","congruent",529.013437135079,1
15,35,"B","incongruent",309.141145828646,1
15,36,"B","incongruent",465.627469686205,1
15,37,"B","congruent",537.76682580592,1
15,38,"B","congruent",247.906728252267,1
15,39,"B","incongruent",384.397443075798,1
15,40,"B","incongruent",516.014175300842,1
15,41,"B","congruent",786.751784740167,1
15,42,"B","congruent",355.782145209005,1
15,43,"B","incongruent",449.935825526223,1
15,44,"B","incongruent",219.073798821255,1
15,45,"B","congruent",819.103693089099,1
15,46,"B","congruent",565.595777636241,1
15,47,"B","incongruent",609.767159640356,1
15,48,"B","incongruent",496.714231985404,1
15,49,"B","congruent",355.147411455032,1
15,50,"B","congruent",115.712250894023,1
15,51,"B","incongruent",502.918726428586,1
15,52,"B","incongruent",113.052666151467,1
15,53,"B","congruent",285.632370729251,1
15,54,"B","congruent",893.618137147328,1
15,55,"B","incongruent",279.745238829144,1
15,56,"B","incongruent",359.613438971901,1
15,57,"B","congruent",655.870716632816,1
15,58,"B","congruent",612.799739076968,1
15,59,"B","incongruent",86.7140463712079,1
15,60,"B","incongruent",462.143228429454,1
15,61,"B","congruent",962.04649832928,1
15,62,"B","congruent",733.050464312691,1
15,63,"B","incongruent",536.472467696604,1
15,64,"B","incongruent",452.404205846083,1
15,65,"B","congruent",467.095023649654,1
15,66,"B","congruent",447.783117743515,1
15,67,"B","incongruent",171.769283008122,1
15,68,"B","incongruent",282.17921415146,1
15,69,"B","congruent",428.893227581484,1
15,70,"B","congruent",594.070645267192,1
15,71,"B","incongruent",554.383307915793,1
15,72,"B","incongruent",746.439823583369,1
15,73,"B","congruent",113.076525154515,1
15,74,"B","congruent",562.268104579955,1
15,75,"B","incongruent",563.113789969153,1
15,76,"B","incongruent",636.335474586818,1
15,77,"B","congruent",562.179449173348,1
15,78,"B","congruent",684.565303529768,1
15,79,"B","incongruent",207.544029457414,1
15,80,"B","incongruent",216.994961465748,1
16,1,"A","congruent",252.593933675542,1
16,2,"A","congruent",12.7326004765054,1
16,3,"A","incongruent",492.122749377284,1
16,4,"A","incongruent",517.357501859226,1
16,5,"A","congruent",549.936180190592,1
16,6,"A","congruent",601.736931222798,1
16,7,"A","incongruent",214.033084007536,1
16,8,"A","incongruent",654.911517909254,1
16,9,"A","congruent",486.234944526109,1
16,10,"A","congruent",326.770362029414,1
16,11,"A","incongruent",439.494308067183,1
16,12,"A","incongruent",376.85571698749,1
16,13,"A","congruent",191.010950068945,1
16,14,"A","congruent",402.881482143771,1
16,15,"A","incongruent",806.205336715561,1
16,16,"A","incongruent",329.746382470045,1
16,17,"A","congruent",402.169983045375,1
16,18,"A","congruent",548.600320762509,1
16,19,"A","incongruent",296.298566030781,1
16,20,"A","incongruent",711.712826349121,1
16,21,"A","congruent",385.95070968753,1
16,22,"A","congruent",912.430044322987,1
16,23,"A","incongruent",537.451256526974,1
16,24,"A","incongruent",101.731658943862,1
16,25,"A","congruent",592.698754731731,1
